,subj_idx,rt1,rt2,response1,response2,state1,state2,feedback,trial,cond,q_init,isleft1,isleft2,split_by
1,0.0,0.993,1.082,0.0,1.0,8.0,2.0,0.0,0.0,1.0,0.5,1.0,0.0,1.0
2,0.0,1.048,1.171,0.0,1.0,3.0,0.0,0.0,1.0,1.0,0.5,0.0,0.0,1.0
3,0.0,0.448,1.234,0.0,0.0,8.0,2.0,0.0,2.0,1.0,0.5,1.0,0.0,1.0
4,0.0,0.912,1.226,0.0,0.0,3.0,0.0,1.0,3.0,1.0,0.5,1.0,0.0,1.0
5,0.0,1.345,1.25,1.0,1.0,9.0,4.0,0.0,4.0,1.0,0.5,1.0,1.0,1.0
6,0.0,1.041,0.692,1.0,0.0,6.0,4.0,0.0,5.0,1.0,0.5,0.0,0.0,1.0
7,0.0,1.107,0.932,0.0,1.0,4.0,1.0,1.0,6.0,1.0,0.5,1.0,0.0,1.0
8,0.0,0.61,0.613,0.0,0.0,3.0,0.0,1.0,7.0,1.0,0.5,1.0,1.0,1.0
9,0.0,0.738,0.572,0.0,0.0,1.0,0.0,0.0,8.0,1.0,0.5,0.0,0.0,1.0
10,0.0,0.659,0.542,0.0,0.0,1.0,0.0,1.0,9.0,1.0,0.5,1.0,1.0,1.0
11,0.0,1.114,0.646,0.0,1.0,4.0,1.0,0.0,10.0,1.0,0.5,0.0,1.0,1.0
12,0.0,1.026,1.356,1.0,0.0,9.0,4.0,1.0,11.0,1.0,0.5,1.0,1.0,1.0
13,0.0,1.401,0.764,0.0,0.0,6.0,4.0,1.0,12.0,1.0,0.5,1.0,1.0,1.0
14,0.0,0.697,0.731,1.0,0.0,9.0,4.0,1.0,13.0,1.0,0.5,0.0,1.0,1.0
15,0.0,0.907,1.189,0.0,1.0,5.0,1.0,1.0,14.0,1.0,0.5,0.0,0.0,1.0
16,0.0,0.611,0.509,0.0,1.0,0.0,1.0,1.0,15.0,1.0,0.5,1.0,1.0,1.0
17,0.0,0.652,0.59,0.0,0.0,3.0,0.0,0.0,16.0,1.0,0.5,1.0,0.0,1.0
18,0.0,0.941,1.575,0.0,0.0,2.0,3.0,1.0,17.0,1.0,0.5,0.0,0.0,1.0
19,0.0,1.604,1.047,1.0,0.0,6.0,4.0,0.0,18.0,1.0,0.5,0.0,0.0,1.0
20,0.0,1.213,1.312,1.0,0.0,5.0,3.0,1.0,19.0,1.0,0.5,0.0,1.0,1.0
21,0.0,0.942,0.735,0.0,0.0,1.0,0.0,0.0,20.0,1.0,0.5,0.0,0.0,1.0
22,0.0,1.271,1.169,1.0,0.0,8.0,4.0,0.0,21.0,1.0,0.5,1.0,1.0,1.0
23,0.0,0.829,1.344,0.0,1.0,4.0,1.0,1.0,22.0,1.0,0.5,0.0,1.0,1.0
24,0.0,0.856,0.883,1.0,0.0,7.0,3.0,0.0,23.0,1.0,0.5,1.0,0.0,1.0
25,0.0,0.769,0.722,1.0,0.0,8.0,4.0,0.0,24.0,1.0,0.5,0.0,0.0,1.0
26,0.0,1.161,1.108,0.0,0.0,4.0,2.0,1.0,25.0,1.0,0.5,1.0,1.0,1.0
27,0.0,1.057,1.035,0.0,0.0,7.0,2.0,0.0,26.0,1.0,0.5,0.0,0.0,1.0
28,0.0,1.298,0.811,1.0,0.0,3.0,4.0,1.0,27.0,1.0,0.5,1.0,0.0,1.0
29,0.0,1.138,0.709,0.0,0.0,7.0,2.0,1.0,28.0,1.0,0.5,0.0,0.0,1.0
30,0.0,1.41,1.011,1.0,0.0,4.0,2.0,0.0,29.0,1.0,0.5,1.0,0.0,1.0
31,0.0,1.618,1.299,1.0,1.0,5.0,1.0,0.0,30.0,1.0,0.5,1.0,1.0,1.0
32,0.0,1.394,0.78,0.0,1.0,4.0,1.0,1.0,31.0,1.0,0.5,1.0,0.0,1.0
33,0.0,1.329,0.892,1.0,0.0,3.0,4.0,1.0,32.0,1.0,0.5,1.0,1.0,1.0
34,0.0,0.72,0.802,1.0,0.0,9.0,4.0,1.0,33.0,1.0,0.5,0.0,0.0,1.0
35,0.0,1.401,0.788,1.0,0.0,1.0,2.0,0.0,34.0,1.0,0.5,0.0,0.0,1.0
36,0.0,1.015,0.753,1.0,1.0,0.0,1.0,1.0,35.0,1.0,0.5,0.0,0.0,1.0
37,0.0,1.406,0.721,1.0,1.0,0.0,1.0,0.0,36.0,1.0,0.5,1.0,0.0,1.0
38,0.0,1.34,1.143,0.0,0.0,9.0,3.0,1.0,37.0,1.0,0.5,0.0,0.0,1.0
39,0.0,0.996,0.822,1.0,0.0,8.0,4.0,0.0,38.0,1.0,0.5,0.0,0.0,1.0
40,0.0,0.94,0.757,0.0,1.0,4.0,1.0,0.0,39.0,1.0,0.5,1.0,0.0,1.0
41,0.0,0.929,0.803,1.0,0.0,5.0,3.0,1.0,40.0,1.0,0.5,0.0,1.0,1.0
42,0.0,0.986,0.804,0.0,1.0,4.0,1.0,1.0,41.0,1.0,0.5,1.0,1.0,1.0
43,0.0,1.249,0.596,1.0,0.0,3.0,4.0,0.0,42.0,1.0,0.5,0.0,1.0,1.0
44,0.0,1.24,0.618,0.0,1.0,4.0,1.0,1.0,43.0,1.0,0.5,1.0,1.0,1.0
45,0.0,0.887,0.624,1.0,0.0,8.0,4.0,0.0,44.0,1.0,0.5,0.0,1.0,1.0
46,0.0,1.109,0.615,0.0,0.0,3.0,0.0,0.0,45.0,1.0,0.5,1.0,0.0,1.0
47,0.0,1.508,0.749,0.0,1.0,3.0,0.0,1.0,46.0,1.0,0.5,1.0,1.0,1.0
48,0.0,1.756,1.188,1.0,0.0,7.0,2.0,0.0,47.0,1.0,0.5,0.0,0.0,1.0
49,0.0,0.66,0.854,0.0,1.0,3.0,0.0,1.0,48.0,1.0,0.5,1.0,1.0,1.0
50,0.0,0.573,1.463,0.0,0.0,0.0,1.0,0.0,49.0,1.0,0.5,1.0,1.0,1.0
51,0.0,1.324,0.534,0.0,0.0,9.0,3.0,1.0,50.0,1.0,0.5,0.0,1.0,1.0
52,0.0,0.972,0.447,1.0,0.0,5.0,3.0,0.0,51.0,1.0,0.5,0.0,1.0,1.0
53,0.0,0.884,0.638,0.0,0.0,9.0,3.0,0.0,52.0,1.0,0.5,1.0,0.0,1.0
54,0.0,1.443,0.966,0.0,0.0,4.0,1.0,1.0,53.0,1.0,0.5,0.0,0.0,1.0
55,0.0,0.689,0.828,0.0,1.0,3.0,4.0,1.0,54.0,1.0,0.5,1.0,0.0,1.0
56,0.0,0.873,1.147,1.0,1.0,9.0,4.0,0.0,55.0,1.0,0.5,0.0,1.0,1.0
57,0.0,1.265,0.891,0.0,0.0,0.0,1.0,1.0,56.0,1.0,0.5,0.0,1.0,1.0
58,0.0,1.455,1.441,0.0,1.0,9.0,3.0,1.0,57.0,1.0,0.5,1.0,1.0,1.0
59,0.0,0.63,1.176,1.0,1.0,2.0,0.0,0.0,58.0,1.0,0.5,0.0,0.0,1.0
60,0.0,0.661,0.6,0.0,0.0,0.0,0.0,0.0,59.0,1.0,0.5,0.0,0.0,1.0
61,0.0,0.971,0.445,1.0,1.0,7.0,3.0,0.0,60.0,1.0,0.5,0.0,1.0,1.0
62,0.0,0.548,1.318,1.0,0.0,7.0,2.0,1.0,61.0,1.0,0.5,0.0,0.0,1.0
63,0.0,1.067,1.67,0.0,1.0,8.0,4.0,1.0,62.0,1.0,0.5,0.0,0.0,1.0
64,0.0,0.763,0.637,0.0,1.0,9.0,3.0,1.0,63.0,1.0,0.5,1.0,0.0,1.0
65,0.0,0.467,0.628,1.0,1.0,7.0,3.0,0.0,64.0,1.0,0.5,1.0,0.0,1.0
66,0.0,1.01,1.333,0.0,1.0,6.0,1.0,1.0,65.0,1.0,0.5,0.0,1.0,1.0
67,0.0,0.592,1.707,0.0,0.0,6.0,4.0,0.0,66.0,1.0,0.5,1.0,0.0,1.0
68,0.0,1.584,1.227,1.0,0.0,3.0,0.0,0.0,67.0,1.0,0.5,1.0,1.0,1.0
69,0.0,0.773,0.96,1.0,1.0,8.0,4.0,0.0,68.0,1.0,0.5,1.0,0.0,1.0
70,0.0,0.596,0.918,1.0,0.0,6.0,4.0,0.0,69.0,1.0,0.5,0.0,0.0,1.0
71,0.0,0.651,1.655,1.0,0.0,2.0,0.0,1.0,70.0,1.0,0.5,1.0,0.0,1.0
72,0.0,1.098,0.565,1.0,1.0,7.0,3.0,0.0,71.0,1.0,0.5,1.0,1.0,1.0
73,0.0,0.665,1.02,1.0,0.0,5.0,1.0,0.0,72.0,1.0,0.5,0.0,1.0,1.0
74,0.0,0.968,1.219,0.0,0.0,8.0,4.0,1.0,73.0,1.0,0.5,1.0,0.0,1.0
75,0.0,0.688,0.986,1.0,0.0,7.0,2.0,1.0,74.0,1.0,0.5,1.0,0.0,1.0
76,0.0,0.471,0.794,1.0,0.0,1.0,2.0,0.0,75.0,1.0,0.5,1.0,0.0,1.0
77,0.0,0.58,0.901,1.0,1.0,4.0,2.0,1.0,76.0,1.0,0.5,0.0,1.0,1.0
78,0.0,0.661,0.566,0.0,1.0,7.0,2.0,0.0,77.0,1.0,0.5,1.0,1.0,1.0
79,0.0,0.557,1.232,0.0,0.0,7.0,3.0,0.0,78.0,1.0,0.5,0.0,0.0,1.0
80,0.0,0.579,0.637,1.0,1.0,1.0,2.0,1.0,79.0,1.0,0.5,0.0,1.0,1.0
81,0.0,0.529,0.882,0.0,1.0,8.0,2.0,1.0,80.0,1.0,0.5,1.0,1.0,1.0
82,0.0,1.273,0.732,1.0,1.0,0.0,1.0,1.0,81.0,1.0,0.5,0.0,0.0,1.0
83,0.0,0.694,1.488,0.0,1.0,5.0,3.0,0.0,82.0,1.0,0.5,0.0,0.0,1.0
84,0.0,0.62,1.334,0.0,0.0,5.0,3.0,0.0,83.0,1.0,0.5,1.0,0.0,1.0
85,0.0,0.635,0.582,0.0,1.0,6.0,1.0,0.0,84.0,1.0,0.5,1.0,0.0,1.0
86,0.0,0.48,0.562,1.0,1.0,1.0,2.0,1.0,85.0,1.0,0.5,0.0,0.0,1.0
87,0.0,1.007,1.258,1.0,1.0,3.0,4.0,0.0,86.0,1.0,0.5,0.0,1.0,1.0
88,0.0,0.526,0.689,1.0,1.0,4.0,2.0,1.0,87.0,1.0,0.5,1.0,1.0,1.0
89,0.0,0.445,0.559,0.0,1.0,8.0,2.0,1.0,88.0,1.0,0.5,1.0,0.0,1.0
90,0.0,1.17,0.941,1.0,1.0,5.0,3.0,0.0,89.0,1.0,0.5,0.0,1.0,1.0
91,0.0,0.833,0.715,0.0,1.0,6.0,1.0,1.0,90.0,1.0,0.5,0.0,0.0,1.0
92,0.0,0.984,0.802,0.0,1.0,2.0,0.0,0.0,91.0,1.0,0.5,0.0,1.0,1.0
93,0.0,0.798,0.536,0.0,0.0,1.0,0.0,0.0,92.0,1.0,0.5,1.0,0.0,1.0
94,0.0,0.462,0.775,0.0,1.0,8.0,2.0,0.0,93.0,1.0,0.5,1.0,1.0,1.0
95,0.0,1.268,0.966,1.0,1.0,9.0,4.0,1.0,94.0,1.0,0.5,0.0,0.0,1.0
96,0.0,0.723,1.014,1.0,1.0,3.0,4.0,0.0,95.0,1.0,0.5,0.0,0.0,1.0
97,0.0,1.091,0.741,0.0,1.0,8.0,2.0,1.0,96.0,1.0,0.5,1.0,1.0,1.0
98,0.0,0.431,0.833,1.0,1.0,1.0,2.0,1.0,97.0,1.0,0.5,1.0,1.0,1.0
99,0.0,0.479,0.586,0.0,1.0,8.0,2.0,1.0,98.0,1.0,0.5,1.0,1.0,1.0
100,0.0,1.486,0.553,0.0,1.0,6.0,1.0,1.0,99.0,1.0,0.5,0.0,1.0,1.0
101,0.0,0.771,0.494,1.0,1.0,4.0,2.0,0.0,100.0,1.0,0.5,0.0,1.0,1.0
102,0.0,0.826,1.436,0.0,1.0,4.0,2.0,0.0,101.0,1.0,0.5,0.0,0.0,1.0
103,0.0,0.625,0.555,1.0,1.0,0.0,1.0,0.0,102.0,1.0,0.5,1.0,1.0,1.0
104,0.0,0.928,1.235,0.0,1.0,9.0,3.0,0.0,103.0,1.0,0.5,0.0,0.0,1.0
105,0.0,1.061,0.759,0.0,1.0,5.0,1.0,0.0,104.0,1.0,0.5,1.0,1.0,1.0
106,0.0,1.091,0.733,0.0,0.0,2.0,0.0,1.0,105.0,1.0,0.5,1.0,0.0,1.0
107,0.0,1.785,0.987,0.0,0.0,5.0,1.0,1.0,106.0,1.0,0.5,1.0,1.0,1.0
108,0.0,0.799,1.569,0.0,0.0,0.0,1.0,1.0,107.0,1.0,0.5,1.0,0.0,1.0
109,0.0,0.555,0.541,0.0,0.0,4.0,1.0,0.0,108.0,1.0,0.5,0.0,1.0,1.0
110,0.0,0.528,0.59,0.0,0.0,4.0,1.0,0.0,109.0,1.0,0.5,1.0,1.0,1.0
111,0.0,1.213,1.287,1.0,0.0,7.0,2.0,1.0,110.0,1.0,0.5,0.0,1.0,1.0
112,0.0,0.797,0.591,0.0,0.0,7.0,2.0,1.0,111.0,1.0,0.5,1.0,1.0,1.0
113,0.0,0.616,0.938,1.0,0.0,4.0,2.0,1.0,112.0,1.0,0.5,0.0,0.0,1.0
114,0.0,0.565,0.543,0.0,0.0,3.0,0.0,1.0,113.0,1.0,0.5,1.0,1.0,1.0
115,0.0,0.827,1.006,1.0,0.0,1.0,2.0,0.0,114.0,1.0,0.5,0.0,0.0,1.0
116,0.0,0.554,0.461,0.0,0.0,2.0,0.0,0.0,115.0,1.0,0.5,0.0,1.0,1.0
117,0.0,1.159,0.689,1.0,1.0,1.0,2.0,1.0,116.0,1.0,0.5,1.0,0.0,1.0
118,0.0,0.505,0.78,0.0,1.0,7.0,2.0,1.0,117.0,1.0,0.5,1.0,1.0,1.0
119,0.0,1.014,1.033,1.0,0.0,9.0,3.0,1.0,118.0,1.0,0.5,1.0,1.0,1.0
120,0.0,1.436,1.471,0.0,0.0,6.0,4.0,0.0,119.0,1.0,0.5,0.0,0.0,1.0
121,0.0,1.081,1.618,0.0,0.0,8.0,4.0,0.0,120.0,1.0,0.5,0.0,0.0,1.0
122,0.0,0.934,0.729,1.0,0.0,2.0,3.0,1.0,121.0,1.0,0.5,0.0,1.0,1.0
123,0.0,1.757,1.425,1.0,0.0,8.0,4.0,0.0,122.0,1.0,0.5,0.0,1.0,1.0
124,0.0,0.764,1.302,1.0,1.0,7.0,2.0,1.0,123.0,1.0,0.5,1.0,0.0,1.0
125,0.0,1.294,0.745,0.0,0.0,3.0,0.0,0.0,124.0,1.0,0.5,0.0,1.0,1.0
126,0.0,0.859,0.718,1.0,0.0,5.0,3.0,1.0,125.0,1.0,0.5,0.0,0.0,1.0
127,0.0,0.641,0.803,1.0,0.0,2.0,3.0,0.0,126.0,1.0,0.5,1.0,1.0,1.0
128,0.0,1.086,0.713,1.0,1.0,1.0,2.0,1.0,127.0,1.0,0.5,0.0,1.0,1.0
129,0.0,0.58,0.758,1.0,0.0,2.0,3.0,0.0,128.0,1.0,0.5,1.0,1.0,1.0
130,0.0,0.705,1.204,0.0,1.0,5.0,3.0,0.0,129.0,1.0,0.5,0.0,0.0,1.0
131,0.0,1.118,0.928,0.0,1.0,8.0,2.0,1.0,130.0,1.0,0.5,0.0,1.0,1.0
132,0.0,1.851,1.558,0.0,1.0,6.0,1.0,1.0,131.0,1.0,0.5,0.0,0.0,1.0
133,0.0,0.561,0.515,0.0,1.0,4.0,1.0,1.0,132.0,1.0,0.5,0.0,1.0,1.0
134,0.0,0.814,1.138,1.0,0.0,0.0,0.0,1.0,133.0,1.0,0.5,1.0,0.0,1.0
135,0.0,0.915,0.74,0.0,1.0,8.0,2.0,0.0,134.0,1.0,0.5,1.0,1.0,1.0
136,0.0,1.026,0.477,0.0,0.0,1.0,0.0,1.0,135.0,1.0,0.5,0.0,1.0,1.0
137,0.0,0.736,0.595,1.0,0.0,0.0,0.0,1.0,136.0,1.0,0.5,1.0,0.0,1.0
138,0.0,0.964,1.262,0.0,0.0,9.0,3.0,0.0,137.0,1.0,0.5,0.0,0.0,1.0
139,0.0,0.466,1.064,0.0,1.0,6.0,4.0,0.0,138.0,1.0,0.5,1.0,0.0,1.0
140,0.0,1.255,1.258,0.0,0.0,7.0,3.0,1.0,139.0,1.0,0.5,0.0,0.0,1.0
141,0.0,0.577,1.363,0.0,0.0,1.0,2.0,1.0,140.0,1.0,0.5,0.0,1.0,1.0
142,0.0,1.009,1.257,0.0,0.0,9.0,3.0,0.0,141.0,1.0,0.5,0.0,0.0,1.0
143,0.0,0.631,0.673,0.0,1.0,6.0,1.0,0.0,142.0,1.0,0.5,1.0,0.0,1.0
144,0.0,1.221,1.175,1.0,1.0,5.0,1.0,1.0,143.0,1.0,0.5,1.0,1.0,1.0
145,0.0,0.517,0.523,0.0,0.0,3.0,0.0,0.0,144.0,1.0,0.5,0.0,0.0,1.0
146,0.0,1.314,0.789,1.0,1.0,9.0,4.0,0.0,145.0,1.0,0.5,0.0,0.0,1.0
147,0.0,0.791,0.577,0.0,1.0,4.0,1.0,1.0,146.0,1.0,0.5,1.0,0.0,1.0
148,0.0,0.445,0.432,1.0,1.0,0.0,1.0,1.0,147.0,1.0,0.5,0.0,1.0,1.0
149,0.0,1.21,1.405,0.0,0.0,9.0,4.0,1.0,148.0,1.0,0.5,0.0,1.0,1.0
150,0.0,1.232,0.531,0.0,1.0,5.0,1.0,0.0,149.0,1.0,0.5,1.0,1.0,1.0
151,0.0,1.734,1.16,0.0,0.0,7.0,2.0,1.0,150.0,1.0,0.5,0.0,1.0,1.0
152,0.0,1.154,1.42,0.0,0.0,3.0,4.0,1.0,151.0,1.0,0.5,1.0,0.0,1.0
153,0.0,1.144,0.494,0.0,0.0,1.0,0.0,0.0,152.0,1.0,0.5,0.0,1.0,1.0
154,0.0,0.725,1.68,1.0,0.0,9.0,3.0,0.0,153.0,1.0,0.5,1.0,0.0,1.0
155,0.0,0.972,0.718,0.0,1.0,5.0,1.0,0.0,154.0,1.0,0.5,1.0,0.0,1.0
156,0.0,1.274,1.069,1.0,0.0,1.0,2.0,0.0,155.0,1.0,0.5,1.0,1.0,1.0
157,0.0,0.831,1.386,0.0,0.0,0.0,1.0,0.0,156.0,1.0,0.5,1.0,1.0,1.0
158,0.0,0.747,1.638,0.0,1.0,4.0,2.0,0.0,157.0,1.0,0.5,0.0,0.0,1.0
159,0.0,1.399,1.025,0.0,0.0,8.0,2.0,1.0,158.0,1.0,0.5,0.0,1.0,1.0
160,0.0,0.436,0.503,1.0,0.0,4.0,2.0,0.0,159.0,1.0,0.5,1.0,1.0,1.0
161,0.0,1.421,0.927,1.0,0.0,3.0,4.0,0.0,160.0,1.0,0.5,1.0,1.0,1.0
162,0.0,0.521,1.308,1.0,1.0,9.0,3.0,1.0,161.0,1.0,0.5,1.0,1.0,1.0
163,0.0,0.782,0.76,1.0,1.0,6.0,4.0,0.0,162.0,1.0,0.5,1.0,1.0,1.0
164,0.0,0.586,0.621,1.0,1.0,2.0,3.0,1.0,163.0,1.0,0.5,0.0,1.0,1.0
165,0.0,0.464,0.538,1.0,1.0,5.0,3.0,0.0,164.0,1.0,0.5,1.0,1.0,1.0
166,0.0,1.062,0.697,1.0,0.0,0.0,1.0,0.0,165.0,1.0,0.5,1.0,1.0,1.0
167,0.0,0.947,1.238,1.0,1.0,5.0,1.0,0.0,166.0,1.0,0.5,0.0,0.0,1.0
168,0.0,0.767,0.528,0.0,1.0,0.0,0.0,0.0,167.0,1.0,0.5,1.0,0.0,1.0
169,0.0,1.404,0.727,0.0,0.0,1.0,0.0,0.0,168.0,1.0,0.5,1.0,1.0,1.0
170,0.0,0.496,1.45,1.0,1.0,5.0,1.0,0.0,169.0,1.0,0.5,0.0,0.0,1.0
171,0.0,0.517,0.584,1.0,1.0,2.0,3.0,0.0,170.0,1.0,0.5,0.0,0.0,1.0
172,0.0,0.482,0.669,0.0,0.0,9.0,3.0,0.0,171.0,1.0,0.5,1.0,1.0,1.0
173,0.0,0.542,0.681,0.0,0.0,7.0,2.0,0.0,172.0,1.0,0.5,0.0,1.0,1.0
174,0.0,1.012,0.477,0.0,0.0,0.0,0.0,0.0,173.0,1.0,0.5,0.0,1.0,1.0
175,0.0,1.57,1.38,0.0,1.0,5.0,1.0,1.0,174.0,1.0,0.5,0.0,0.0,1.0
176,0.0,0.392,0.93,0.0,1.0,6.0,4.0,0.0,175.0,1.0,0.5,1.0,1.0,1.0
177,0.0,1.646,0.746,0.0,1.0,7.0,2.0,1.0,176.0,1.0,0.5,0.0,0.0,1.0
178,0.0,1.075,0.957,0.0,0.0,2.0,3.0,1.0,177.0,1.0,0.5,0.0,1.0,1.0
179,0.0,0.519,0.506,1.0,0.0,7.0,3.0,0.0,178.0,1.0,0.5,0.0,1.0,1.0
180,0.0,0.61,1.382,0.0,1.0,6.0,4.0,0.0,179.0,1.0,0.5,1.0,1.0,1.0
181,0.0,1.222,0.632,1.0,0.0,2.0,3.0,1.0,180.0,1.0,0.5,1.0,0.0,1.0
182,0.0,0.941,0.52,0.0,1.0,1.0,0.0,0.0,181.0,1.0,0.5,1.0,0.0,1.0
183,0.0,0.962,0.828,1.0,0.0,0.0,1.0,1.0,182.0,1.0,0.5,1.0,0.0,1.0
184,0.0,1.343,1.097,1.0,0.0,1.0,0.0,1.0,183.0,1.0,0.5,0.0,1.0,1.0
185,0.0,0.9,1.575,0.0,1.0,4.0,2.0,1.0,184.0,1.0,0.5,0.0,1.0,1.0
186,0.0,0.598,0.599,0.0,0.0,5.0,1.0,1.0,185.0,1.0,0.5,0.0,1.0,1.0
187,0.0,0.714,0.677,0.0,1.0,8.0,2.0,0.0,186.0,1.0,0.5,1.0,1.0,1.0
188,0.0,1.032,0.505,0.0,0.0,3.0,0.0,1.0,187.0,1.0,0.5,0.0,0.0,1.0
189,0.0,0.971,1.293,0.0,1.0,9.0,4.0,0.0,188.0,1.0,0.5,1.0,1.0,1.0
190,0.0,1.16,1.09,0.0,1.0,7.0,2.0,0.0,189.0,1.0,0.5,0.0,0.0,1.0
191,0.0,0.513,0.603,1.0,1.0,1.0,2.0,0.0,190.0,1.0,0.5,1.0,1.0,1.0
192,0.0,0.982,0.953,0.0,1.0,9.0,4.0,0.0,191.0,1.0,0.5,0.0,0.0,1.0
193,0.0,1.153,0.924,1.0,0.0,8.0,4.0,0.0,192.0,1.0,0.5,0.0,0.0,1.0
194,0.0,0.567,1.13,1.0,0.0,1.0,0.0,0.0,193.0,1.0,0.5,0.0,0.0,1.0
195,0.0,0.827,0.589,0.0,0.0,6.0,1.0,0.0,194.0,1.0,0.5,1.0,0.0,1.0
196,0.0,0.583,1.097,1.0,1.0,0.0,1.0,0.0,195.0,1.0,0.5,1.0,0.0,1.0
197,0.0,0.907,0.67,1.0,1.0,2.0,3.0,0.0,196.0,1.0,0.5,0.0,1.0,1.0
198,0.0,0.758,1.369,0.0,0.0,0.0,1.0,1.0,197.0,1.0,0.5,1.0,1.0,1.0
199,0.0,1.723,1.205,1.0,1.0,9.0,4.0,0.0,198.0,1.0,0.5,1.0,0.0,1.0
200,0.0,0.687,0.53,0.0,0.0,5.0,1.0,0.0,199.0,1.0,0.5,0.0,0.0,1.0
201,0.0,1.109,0.624,0.0,0.0,9.0,3.0,1.0,200.0,1.0,0.5,0.0,1.0,1.0
202,0.0,0.442,0.484,1.0,0.0,7.0,3.0,1.0,201.0,1.0,0.5,1.0,1.0,1.0
203,0.0,0.431,0.482,1.0,0.0,2.0,3.0,1.0,202.0,1.0,0.5,0.0,1.0,1.0
204,0.0,0.395,0.447,1.0,0.0,5.0,3.0,1.0,203.0,1.0,0.5,0.0,1.0,1.0
205,0.0,0.424,1.019,1.0,1.0,5.0,1.0,0.0,204.0,1.0,0.5,1.0,0.0,1.0
206,0.0,0.541,0.631,1.0,0.0,2.0,3.0,1.0,205.0,1.0,0.5,0.0,1.0,1.0
207,0.0,0.466,0.918,1.0,0.0,2.0,0.0,1.0,206.0,1.0,0.5,1.0,1.0,1.0
208,0.0,0.462,0.894,0.0,0.0,2.0,3.0,1.0,207.0,1.0,0.5,1.0,1.0,1.0
209,0.0,1.084,0.909,1.0,0.0,6.0,4.0,1.0,208.0,1.0,0.5,0.0,0.0,1.0
210,0.0,0.921,0.909,0.0,0.0,4.0,1.0,1.0,209.0,1.0,0.5,0.0,1.0,1.0
211,0.0,0.941,0.975,1.0,0.0,2.0,0.0,0.0,210.0,1.0,0.5,1.0,0.0,1.0
212,0.0,0.658,1.325,0.0,0.0,3.0,4.0,0.0,211.0,1.0,0.5,1.0,0.0,1.0
213,0.0,1.054,0.496,0.0,0.0,3.0,0.0,0.0,212.0,1.0,0.5,1.0,1.0,1.0
214,0.0,1.011,0.902,1.0,1.0,0.0,0.0,1.0,213.0,1.0,0.5,0.0,1.0,1.0
215,0.0,1.085,0.735,0.0,1.0,0.0,0.0,0.0,214.0,1.0,0.5,0.0,1.0,1.0
216,0.0,1.143,0.626,1.0,1.0,6.0,4.0,1.0,215.0,1.0,0.5,1.0,0.0,1.0
217,0.0,0.427,0.598,1.0,1.0,3.0,0.0,1.0,216.0,1.0,0.5,1.0,1.0,1.0
218,0.0,1.134,0.84,1.0,0.0,7.0,3.0,1.0,217.0,1.0,0.5,1.0,0.0,1.0
219,0.0,0.978,0.925,0.0,1.0,4.0,2.0,1.0,218.0,1.0,0.5,0.0,0.0,1.0
220,0.0,1.175,1.178,0.0,0.0,9.0,3.0,0.0,219.0,1.0,0.5,1.0,1.0,1.0
221,0.0,0.964,0.808,1.0,1.0,1.0,2.0,0.0,220.0,1.0,0.5,1.0,1.0,1.0
222,0.0,1.175,0.713,1.0,1.0,9.0,4.0,0.0,221.0,1.0,0.5,0.0,0.0,1.0
223,0.0,0.66,0.51,0.0,1.0,0.0,0.0,0.0,222.0,1.0,0.5,0.0,1.0,1.0
224,0.0,0.92,1.067,1.0,1.0,4.0,1.0,0.0,223.0,1.0,0.5,1.0,1.0,1.0
225,0.0,0.483,0.789,0.0,0.0,6.0,1.0,0.0,224.0,1.0,0.5,0.0,1.0,1.0
226,0.0,1.168,0.762,1.0,1.0,1.0,2.0,0.0,225.0,1.0,0.5,0.0,1.0,1.0
227,0.0,0.668,1.006,0.0,1.0,6.0,1.0,1.0,226.0,1.0,0.5,0.0,1.0,1.0
228,0.0,0.497,0.619,0.0,1.0,4.0,1.0,0.0,227.0,1.0,0.5,0.0,0.0,1.0
229,0.0,1.173,1.056,1.0,0.0,7.0,3.0,1.0,228.0,1.0,0.5,0.0,1.0,1.0
230,0.0,0.52,0.795,1.0,0.0,2.0,3.0,0.0,229.0,1.0,0.5,1.0,0.0,1.0
231,0.0,1.356,0.758,1.0,0.0,6.0,4.0,0.0,230.0,1.0,0.5,0.0,1.0,1.0
232,0.0,0.807,0.858,1.0,0.0,5.0,3.0,1.0,231.0,1.0,0.5,0.0,0.0,1.0
233,0.0,0.515,0.788,1.0,0.0,7.0,3.0,0.0,232.0,1.0,0.5,0.0,0.0,1.0
234,0.0,0.983,0.954,1.0,0.0,1.0,0.0,0.0,233.0,1.0,0.5,0.0,1.0,1.0
235,0.0,0.546,0.901,0.0,0.0,9.0,3.0,1.0,234.0,1.0,0.5,0.0,0.0,1.0
236,0.0,1.021,0.593,0.0,0.0,1.0,0.0,1.0,235.0,1.0,0.5,1.0,1.0,1.0
237,0.0,0.487,1.065,0.0,0.0,1.0,2.0,0.0,236.0,1.0,0.5,0.0,1.0,1.0
238,0.0,0.772,1.391,0.0,0.0,9.0,4.0,1.0,237.0,1.0,0.5,0.0,0.0,1.0
239,0.0,0.695,0.92,1.0,0.0,5.0,3.0,0.0,238.0,1.0,0.5,1.0,1.0,1.0
240,0.0,0.494,0.631,1.0,0.0,7.0,3.0,1.0,239.0,1.0,0.5,0.0,1.0,1.0
241,0.0,0.467,0.999,1.0,0.0,2.0,0.0,0.0,240.0,1.0,0.5,1.0,0.0,1.0
242,0.0,0.886,0.618,0.0,1.0,3.0,0.0,0.0,241.0,1.0,0.5,1.0,0.0,1.0
243,0.0,0.872,0.586,1.0,0.0,1.0,2.0,1.0,242.0,1.0,0.5,1.0,1.0,1.0
244,0.0,0.756,0.83,1.0,0.0,2.0,3.0,0.0,243.0,1.0,0.5,1.0,1.0,1.0
245,0.0,1.119,0.473,0.0,1.0,3.0,0.0,1.0,244.0,1.0,0.5,0.0,1.0,1.0
246,0.0,0.459,0.717,0.0,1.0,0.0,0.0,0.0,245.0,1.0,0.5,0.0,0.0,1.0
247,0.0,0.918,0.592,1.0,1.0,8.0,4.0,1.0,246.0,1.0,0.5,1.0,1.0,1.0
248,0.0,0.379,0.71,1.0,1.0,8.0,4.0,1.0,247.0,1.0,0.5,1.0,1.0,1.0
249,0.0,0.456,1.083,1.0,1.0,6.0,1.0,1.0,248.0,1.0,0.5,0.0,0.0,1.0
250,0.0,1.156,0.895,1.0,0.0,2.0,3.0,1.0,249.0,1.0,0.5,1.0,0.0,1.0
251,0.0,0.52,0.842,1.0,1.0,3.0,4.0,1.0,250.0,1.0,0.5,1.0,1.0,1.0
252,0.0,0.54,0.695,1.0,1.0,6.0,4.0,1.0,251.0,1.0,0.5,1.0,1.0,1.0
253,0.0,0.767,0.745,1.0,0.0,5.0,3.0,1.0,252.0,1.0,0.5,0.0,0.0,1.0
254,0.0,0.491,0.613,1.0,0.0,7.0,3.0,0.0,253.0,1.0,0.5,0.0,0.0,1.0
255,0.0,1.517,1.263,1.0,1.0,2.0,0.0,1.0,254.0,1.0,0.5,0.0,1.0,1.0
256,0.0,1.035,1.685,0.0,0.0,4.0,2.0,0.0,255.0,1.0,0.5,0.0,1.0,1.0
257,0.0,0.432,0.546,0.0,1.0,6.0,1.0,1.0,256.0,1.0,0.5,1.0,1.0,1.0
258,0.0,0.451,0.453,1.0,1.0,0.0,1.0,1.0,257.0,1.0,0.5,0.0,1.0,1.0
259,0.0,0.734,1.024,0.0,0.0,2.0,3.0,1.0,258.0,1.0,0.5,1.0,0.0,1.0
260,0.0,0.761,1.051,0.0,1.0,3.0,4.0,1.0,259.0,1.0,0.5,0.0,1.0,1.0
261,0.0,0.582,0.984,1.0,1.0,5.0,1.0,0.0,260.0,1.0,0.5,1.0,1.0,1.0
262,0.0,0.726,0.937,0.0,0.0,2.0,3.0,1.0,261.0,1.0,0.5,1.0,0.0,1.0
263,0.0,0.696,0.882,1.0,0.0,2.0,3.0,1.0,262.0,1.0,0.5,1.0,0.0,1.0
264,0.0,0.923,1.198,0.0,1.0,1.0,2.0,0.0,263.0,1.0,0.5,1.0,0.0,1.0
265,0.0,1.166,1.105,1.0,0.0,8.0,2.0,0.0,264.0,1.0,0.5,1.0,0.0,1.0
266,0.0,1.065,0.476,0.0,1.0,6.0,1.0,0.0,265.0,1.0,0.5,1.0,0.0,1.0
267,0.0,0.917,1.191,0.0,1.0,4.0,2.0,1.0,266.0,1.0,0.5,0.0,0.0,1.0
268,0.0,0.896,0.931,0.0,1.0,0.0,1.0,0.0,267.0,1.0,0.5,0.0,0.0,1.0
269,0.0,0.522,0.861,0.0,1.0,7.0,2.0,0.0,268.0,1.0,0.5,0.0,1.0,1.0
270,0.0,0.926,1.272,0.0,1.0,9.0,4.0,1.0,269.0,1.0,0.5,1.0,0.0,1.0
271,0.0,0.488,0.659,1.0,1.0,6.0,4.0,1.0,270.0,1.0,0.5,1.0,0.0,1.0
272,0.0,1.387,0.476,0.0,0.0,0.0,0.0,1.0,271.0,1.0,0.5,0.0,1.0,1.0
273,0.0,0.559,0.704,1.0,1.0,6.0,4.0,1.0,272.0,1.0,0.5,0.0,1.0,1.0
274,0.0,0.458,0.484,0.0,0.0,3.0,0.0,0.0,273.0,1.0,0.5,1.0,1.0,1.0
275,0.0,0.453,0.624,1.0,1.0,8.0,4.0,1.0,274.0,1.0,0.5,1.0,1.0,1.0
276,0.0,0.472,1.002,1.0,1.0,3.0,4.0,1.0,275.0,1.0,0.5,1.0,0.0,1.0
277,0.0,1.218,0.836,1.0,0.0,0.0,1.0,0.0,276.0,1.0,0.5,0.0,1.0,1.0
278,0.0,0.533,0.615,1.0,1.0,8.0,4.0,0.0,277.0,1.0,0.5,0.0,1.0,1.0
279,0.0,0.616,1.297,0.0,0.0,7.0,3.0,0.0,278.0,1.0,0.5,0.0,1.0,1.0
280,0.0,0.898,0.59,1.0,1.0,3.0,4.0,1.0,279.0,1.0,0.5,1.0,0.0,1.0
281,0.0,0.987,0.518,1.0,1.0,0.0,1.0,1.0,280.0,1.0,0.5,0.0,0.0,1.0
282,0.0,0.574,1.176,1.0,0.0,8.0,2.0,0.0,281.0,1.0,0.5,1.0,1.0,1.0
283,0.0,0.978,0.501,1.0,1.0,0.0,1.0,1.0,282.0,1.0,0.5,0.0,0.0,1.0
284,0.0,0.387,0.493,0.0,1.0,6.0,1.0,1.0,283.0,1.0,0.5,1.0,1.0,1.0
285,0.0,0.766,0.848,1.0,0.0,2.0,3.0,1.0,284.0,1.0,0.5,0.0,0.0,1.0
286,0.0,1.392,1.13,0.0,1.0,9.0,4.0,0.0,285.0,1.0,0.5,1.0,1.0,1.0
287,0.0,0.868,1.311,0.0,1.0,4.0,2.0,0.0,286.0,1.0,0.5,1.0,0.0,1.0
288,0.0,0.863,0.586,1.0,1.0,6.0,4.0,1.0,287.0,1.0,0.5,1.0,1.0,1.0
289,0.0,0.917,0.455,0.0,0.0,1.0,0.0,0.0,288.0,1.0,0.5,1.0,1.0,1.0
290,0.0,0.994,0.588,1.0,1.0,8.0,4.0,1.0,289.0,1.0,0.5,0.0,0.0,1.0
291,0.0,0.763,0.677,1.0,0.0,2.0,3.0,0.0,290.0,1.0,0.5,0.0,0.0,1.0
292,0.0,1.383,0.737,1.0,0.0,5.0,3.0,1.0,291.0,1.0,0.5,0.0,1.0,1.0
293,0.0,0.458,0.557,1.0,0.0,5.0,3.0,1.0,292.0,1.0,0.5,1.0,0.0,1.0
294,0.0,0.406,1.521,1.0,1.0,2.0,0.0,0.0,293.0,1.0,0.5,1.0,1.0,1.0
295,0.0,0.962,0.461,0.0,1.0,4.0,1.0,1.0,294.0,1.0,0.5,0.0,1.0,1.0
296,0.0,1.404,1.142,0.0,1.0,8.0,2.0,0.0,295.0,1.0,0.5,0.0,1.0,1.0
297,0.0,0.631,0.689,1.0,0.0,7.0,3.0,1.0,296.0,1.0,0.5,0.0,0.0,1.0
298,0.0,0.92,0.548,1.0,1.0,0.0,1.0,1.0,297.0,1.0,0.5,0.0,0.0,1.0
299,0.0,1.034,0.636,0.0,0.0,1.0,0.0,0.0,298.0,1.0,0.5,1.0,0.0,1.0
300,1.0,1.409,1.346,0.0,1.0,1.0,0.0,0.0,0.0,1.0,0.5,1.0,0.0,1.0
301,1.0,1.964,1.689,1.0,0.0,5.0,3.0,0.0,1.0,1.0,0.5,0.0,1.0,1.0
302,1.0,0.951,0.947,0.0,1.0,9.0,3.0,0.0,2.0,1.0,0.5,1.0,0.0,1.0
303,1.0,0.714,1.218,0.0,1.0,5.0,1.0,1.0,3.0,1.0,0.5,1.0,0.0,1.0
304,1.0,0.9,1.325,0.0,1.0,7.0,2.0,1.0,4.0,1.0,0.5,1.0,0.0,1.0
305,1.0,1.334,1.146,0.0,0.0,0.0,0.0,1.0,5.0,1.0,0.5,0.0,1.0,1.0
306,1.0,0.856,0.71,0.0,1.0,6.0,1.0,1.0,6.0,1.0,0.5,1.0,0.0,1.0
307,1.0,1.051,0.916,0.0,1.0,5.0,1.0,0.0,7.0,1.0,0.5,0.0,1.0,1.0
308,1.0,0.936,1.522,0.0,1.0,8.0,4.0,0.0,8.0,1.0,0.5,0.0,0.0,1.0
309,1.0,0.86,0.975,0.0,0.0,0.0,0.0,0.0,9.0,1.0,0.5,1.0,0.0,1.0
310,1.0,0.902,0.877,0.0,0.0,4.0,1.0,1.0,10.0,1.0,0.5,1.0,1.0,1.0
311,1.0,0.718,0.979,0.0,0.0,5.0,1.0,1.0,11.0,1.0,0.5,1.0,1.0,1.0
312,1.0,0.981,0.67,1.0,1.0,1.0,2.0,0.0,12.0,1.0,0.5,0.0,1.0,1.0
313,1.0,0.84,0.869,1.0,0.0,6.0,4.0,1.0,13.0,1.0,0.5,1.0,0.0,1.0
314,1.0,0.814,1.179,0.0,1.0,5.0,1.0,0.0,14.0,1.0,0.5,0.0,1.0,1.0
315,1.0,0.852,0.615,0.0,0.0,8.0,4.0,1.0,15.0,1.0,0.5,1.0,0.0,1.0
316,1.0,0.766,1.032,0.0,0.0,1.0,0.0,0.0,16.0,1.0,0.5,0.0,0.0,1.0
317,1.0,0.635,0.764,0.0,1.0,3.0,0.0,0.0,17.0,1.0,0.5,1.0,0.0,1.0
318,1.0,1.057,0.799,1.0,1.0,8.0,2.0,1.0,18.0,1.0,0.5,1.0,0.0,1.0
319,1.0,1.463,1.349,1.0,0.0,5.0,1.0,1.0,19.0,1.0,0.5,0.0,1.0,1.0
320,1.0,1.101,0.871,0.0,1.0,7.0,2.0,0.0,20.0,1.0,0.5,1.0,0.0,1.0
321,1.0,1.051,1.292,0.0,1.0,7.0,3.0,1.0,21.0,1.0,0.5,0.0,0.0,1.0
322,1.0,0.714,0.739,1.0,0.0,8.0,4.0,1.0,22.0,1.0,0.5,1.0,0.0,1.0
323,1.0,0.995,0.66,0.0,1.0,1.0,2.0,0.0,23.0,1.0,0.5,1.0,0.0,1.0
324,1.0,0.78,0.852,1.0,1.0,9.0,3.0,0.0,24.0,1.0,0.5,1.0,1.0,1.0
325,1.0,0.667,0.568,0.0,1.0,5.0,3.0,0.0,25.0,1.0,0.5,1.0,0.0,1.0
326,1.0,1.08,1.004,1.0,0.0,8.0,4.0,0.0,26.0,1.0,0.5,0.0,1.0,1.0
327,1.0,1.083,0.905,0.0,1.0,1.0,0.0,1.0,27.0,1.0,0.5,0.0,0.0,1.0
328,1.0,0.782,0.87,1.0,1.0,7.0,3.0,0.0,28.0,1.0,0.5,1.0,1.0,1.0
329,1.0,0.67,1.125,0.0,1.0,5.0,1.0,1.0,29.0,1.0,0.5,0.0,1.0,1.0
330,1.0,0.713,1.097,0.0,1.0,7.0,2.0,0.0,30.0,1.0,0.5,1.0,1.0,1.0
331,1.0,0.984,0.81,0.0,1.0,6.0,1.0,1.0,31.0,1.0,0.5,1.0,1.0,1.0
332,1.0,0.741,1.145,1.0,1.0,3.0,0.0,1.0,32.0,1.0,0.5,1.0,0.0,1.0
333,1.0,1.38,1.502,1.0,0.0,8.0,2.0,1.0,33.0,1.0,0.5,1.0,0.0,1.0
334,1.0,1.02,0.902,1.0,1.0,0.0,1.0,1.0,34.0,1.0,0.5,0.0,0.0,1.0
335,1.0,1.212,1.474,1.0,0.0,3.0,4.0,0.0,35.0,1.0,0.5,0.0,1.0,1.0
336,1.0,1.158,0.976,1.0,0.0,1.0,2.0,0.0,36.0,1.0,0.5,1.0,0.0,1.0
337,1.0,0.669,0.701,1.0,1.0,0.0,0.0,1.0,37.0,1.0,0.5,0.0,1.0,1.0
338,1.0,1.004,0.611,0.0,1.0,1.0,0.0,1.0,38.0,1.0,0.5,0.0,1.0,1.0
339,1.0,0.584,0.65,0.0,1.0,3.0,0.0,0.0,39.0,1.0,0.5,1.0,1.0,1.0
340,1.0,0.932,1.399,1.0,1.0,9.0,4.0,1.0,40.0,1.0,0.5,1.0,1.0,1.0
341,1.0,1.109,1.007,1.0,1.0,0.0,1.0,1.0,41.0,1.0,0.5,0.0,1.0,1.0
342,1.0,1.076,1.103,1.0,1.0,0.0,0.0,1.0,42.0,1.0,0.5,0.0,0.0,1.0
343,1.0,0.961,0.771,0.0,1.0,2.0,0.0,1.0,43.0,1.0,0.5,0.0,0.0,1.0
344,1.0,0.957,1.01,1.0,0.0,9.0,4.0,1.0,44.0,1.0,0.5,0.0,0.0,1.0
345,1.0,0.82,0.802,0.0,1.0,1.0,0.0,0.0,45.0,1.0,0.5,1.0,0.0,1.0
346,1.0,0.638,0.915,0.0,0.0,0.0,0.0,1.0,46.0,1.0,0.5,0.0,0.0,1.0
347,1.0,0.939,1.051,1.0,0.0,8.0,4.0,1.0,47.0,1.0,0.5,1.0,0.0,1.0
348,1.0,0.654,0.685,0.0,0.0,3.0,0.0,1.0,48.0,1.0,0.5,0.0,1.0,1.0
349,1.0,0.608,1.009,0.0,0.0,2.0,0.0,0.0,49.0,1.0,0.5,1.0,0.0,1.0
350,1.0,0.872,1.019,0.0,1.0,6.0,1.0,0.0,50.0,1.0,0.5,0.0,0.0,1.0
351,1.0,1.128,1.245,1.0,0.0,3.0,4.0,0.0,51.0,1.0,0.5,0.0,1.0,1.0
352,1.0,0.655,0.724,1.0,1.0,8.0,4.0,0.0,52.0,1.0,0.5,1.0,1.0,1.0
353,1.0,0.762,1.312,0.0,0.0,8.0,2.0,0.0,53.0,1.0,0.5,0.0,1.0,1.0
354,1.0,0.941,0.83,0.0,1.0,7.0,2.0,0.0,54.0,1.0,0.5,0.0,0.0,1.0
355,1.0,1.218,0.894,0.0,1.0,6.0,1.0,0.0,55.0,1.0,0.5,1.0,0.0,1.0
356,1.0,0.569,1.296,0.0,0.0,5.0,1.0,0.0,56.0,1.0,0.5,1.0,0.0,1.0
357,1.0,1.683,1.199,1.0,1.0,5.0,3.0,1.0,57.0,1.0,0.5,1.0,0.0,1.0
358,1.0,1.913,1.449,1.0,0.0,6.0,4.0,1.0,58.0,1.0,0.5,0.0,1.0,1.0
359,1.0,1.777,0.781,0.0,0.0,0.0,0.0,0.0,59.0,1.0,0.5,0.0,1.0,1.0
360,1.0,1.213,0.776,0.0,1.0,1.0,0.0,0.0,60.0,1.0,0.5,0.0,1.0,1.0
361,1.0,0.884,1.461,1.0,1.0,3.0,4.0,0.0,61.0,1.0,0.5,0.0,1.0,1.0
362,1.0,1.101,1.082,0.0,1.0,8.0,4.0,1.0,62.0,1.0,0.5,0.0,0.0,1.0
363,1.0,1.552,1.164,1.0,1.0,7.0,2.0,0.0,63.0,1.0,0.5,0.0,0.0,1.0
364,1.0,1.493,1.203,1.0,1.0,7.0,3.0,1.0,64.0,1.0,0.5,1.0,0.0,1.0
365,1.0,0.722,1.406,1.0,1.0,1.0,0.0,0.0,65.0,1.0,0.5,1.0,1.0,1.0
366,1.0,1.181,1.179,0.0,0.0,4.0,1.0,1.0,66.0,1.0,0.5,0.0,1.0,1.0
367,1.0,0.83,0.89,0.0,1.0,6.0,4.0,0.0,67.0,1.0,0.5,1.0,1.0,1.0
368,1.0,0.72,0.967,0.0,0.0,3.0,0.0,1.0,68.0,1.0,0.5,0.0,0.0,1.0
369,1.0,0.94,0.806,0.0,1.0,9.0,4.0,1.0,69.0,1.0,0.5,1.0,1.0,1.0
370,1.0,0.565,0.641,1.0,1.0,6.0,4.0,0.0,70.0,1.0,0.5,0.0,0.0,1.0
371,1.0,1.147,1.04,1.0,0.0,3.0,4.0,0.0,71.0,1.0,0.5,1.0,0.0,1.0
372,1.0,1.053,0.961,0.0,0.0,8.0,2.0,1.0,72.0,1.0,0.5,0.0,1.0,1.0
373,1.0,0.335,0.342,1.0,0.0,6.0,4.0,0.0,73.0,1.0,0.5,1.0,0.0,1.0
374,1.0,0.615,0.489,1.0,0.0,4.0,2.0,1.0,74.0,1.0,0.5,1.0,1.0,1.0
375,1.0,0.601,0.778,0.0,1.0,3.0,0.0,0.0,75.0,1.0,0.5,0.0,0.0,1.0
376,1.0,0.855,0.762,0.0,0.0,7.0,3.0,0.0,76.0,1.0,0.5,1.0,0.0,1.0
377,1.0,0.698,0.719,0.0,0.0,6.0,1.0,1.0,77.0,1.0,0.5,0.0,0.0,1.0
378,1.0,0.59,0.511,0.0,0.0,3.0,0.0,1.0,78.0,1.0,0.5,0.0,0.0,1.0
379,1.0,0.372,0.333,0.0,0.0,4.0,2.0,1.0,79.0,1.0,0.5,0.0,0.0,1.0
380,1.0,0.311,0.491,1.0,0.0,5.0,3.0,0.0,80.0,1.0,0.5,0.0,0.0,1.0
381,1.0,0.432,0.325,0.0,0.0,2.0,0.0,1.0,81.0,1.0,0.5,1.0,1.0,1.0
382,1.0,0.422,0.38,1.0,0.0,3.0,4.0,0.0,82.0,1.0,0.5,1.0,1.0,1.0
383,1.0,0.574,0.689,0.0,0.0,9.0,3.0,0.0,83.0,1.0,0.5,0.0,1.0,1.0
384,1.0,0.545,0.847,0.0,1.0,6.0,1.0,0.0,84.0,1.0,0.5,1.0,0.0,1.0
385,1.0,0.508,1.082,1.0,1.0,3.0,4.0,0.0,85.0,1.0,0.5,0.0,0.0,1.0
386,1.0,0.434,1.018,0.0,1.0,6.0,1.0,1.0,86.0,1.0,0.5,1.0,0.0,1.0
387,1.0,0.601,0.467,0.0,1.0,2.0,3.0,0.0,87.0,1.0,0.5,0.0,1.0,1.0
388,1.0,0.471,0.952,1.0,0.0,3.0,4.0,1.0,88.0,1.0,0.5,0.0,1.0,1.0
389,1.0,0.759,0.648,1.0,0.0,2.0,3.0,0.0,89.0,1.0,0.5,1.0,0.0,1.0
390,1.0,0.573,0.406,0.0,1.0,3.0,4.0,0.0,90.0,1.0,0.5,0.0,0.0,1.0
391,1.0,0.947,1.536,0.0,1.0,2.0,0.0,0.0,91.0,1.0,0.5,0.0,0.0,1.0
392,1.0,0.875,1.032,1.0,0.0,9.0,4.0,0.0,92.0,1.0,0.5,1.0,1.0,1.0
393,1.0,1.304,1.46,1.0,1.0,4.0,1.0,0.0,93.0,1.0,0.5,0.0,1.0,1.0
394,1.0,1.36,1.39,1.0,0.0,0.0,1.0,0.0,94.0,1.0,0.5,0.0,0.0,1.0
395,1.0,0.49,0.748,1.0,1.0,9.0,4.0,1.0,95.0,1.0,0.5,1.0,1.0,1.0
396,1.0,0.786,1.036,1.0,0.0,7.0,3.0,0.0,96.0,1.0,0.5,0.0,0.0,1.0
397,1.0,1.181,1.364,1.0,1.0,7.0,3.0,1.0,97.0,1.0,0.5,0.0,0.0,1.0
398,1.0,0.624,0.896,1.0,1.0,7.0,3.0,1.0,98.0,1.0,0.5,1.0,0.0,1.0
399,1.0,0.607,0.924,1.0,1.0,2.0,3.0,0.0,99.0,1.0,0.5,1.0,1.0,1.0
400,1.0,0.728,1.056,0.0,0.0,9.0,3.0,0.0,100.0,1.0,0.5,0.0,1.0,1.0
401,1.0,1.031,1.24,1.0,0.0,8.0,4.0,0.0,101.0,1.0,0.5,0.0,0.0,1.0
402,1.0,0.699,0.95,1.0,1.0,6.0,4.0,0.0,102.0,1.0,0.5,1.0,1.0,1.0
403,1.0,1.009,1.207,0.0,0.0,1.0,0.0,1.0,103.0,1.0,0.5,0.0,1.0,1.0
404,1.0,0.954,1.056,0.0,1.0,5.0,1.0,1.0,104.0,1.0,0.5,0.0,0.0,1.0
405,1.0,0.688,1.421,0.0,0.0,6.0,4.0,1.0,105.0,1.0,0.5,0.0,0.0,1.0
406,1.0,0.848,1.275,1.0,0.0,3.0,0.0,1.0,106.0,1.0,0.5,0.0,0.0,1.0
407,1.0,1.156,1.326,0.0,1.0,9.0,3.0,0.0,107.0,1.0,0.5,1.0,0.0,1.0
408,1.0,1.089,0.818,0.0,0.0,2.0,0.0,1.0,108.0,1.0,0.5,1.0,0.0,1.0
409,1.0,0.664,0.758,0.0,0.0,3.0,0.0,1.0,109.0,1.0,0.5,0.0,0.0,1.0
410,1.0,0.94,1.07,0.0,0.0,0.0,0.0,1.0,110.0,1.0,0.5,0.0,1.0,1.0
411,1.0,1.206,1.874,0.0,0.0,5.0,3.0,0.0,111.0,1.0,0.5,1.0,0.0,1.0
412,1.0,1.237,0.822,0.0,0.0,0.0,0.0,0.0,112.0,1.0,0.5,0.0,0.0,1.0
413,1.0,1.687,1.812,0.0,0.0,6.0,4.0,0.0,113.0,1.0,0.5,0.0,0.0,1.0
414,1.0,1.002,1.422,1.0,1.0,8.0,2.0,0.0,114.0,1.0,0.5,1.0,1.0,1.0
415,1.0,1.333,1.018,0.0,0.0,1.0,0.0,1.0,115.0,1.0,0.5,0.0,0.0,1.0
416,1.0,0.701,0.772,0.0,0.0,1.0,0.0,1.0,116.0,1.0,0.5,0.0,0.0,1.0
417,1.0,0.984,1.245,0.0,0.0,5.0,3.0,1.0,117.0,1.0,0.5,0.0,1.0,1.0
418,1.0,1.313,1.068,1.0,0.0,2.0,3.0,0.0,118.0,1.0,0.5,0.0,0.0,1.0
419,1.0,0.726,1.12,0.0,1.0,2.0,0.0,1.0,119.0,1.0,0.5,0.0,1.0,1.0
420,1.0,0.61,0.891,0.0,1.0,0.0,0.0,1.0,120.0,1.0,0.5,1.0,0.0,1.0
421,1.0,1.302,1.196,1.0,0.0,8.0,2.0,0.0,121.0,1.0,0.5,0.0,1.0,1.0
422,1.0,1.615,1.208,1.0,0.0,9.0,3.0,0.0,122.0,1.0,0.5,0.0,1.0,1.0
423,1.0,0.975,1.073,1.0,0.0,3.0,0.0,0.0,123.0,1.0,0.5,1.0,0.0,1.0
424,1.0,0.692,0.943,0.0,1.0,0.0,1.0,1.0,124.0,1.0,0.5,0.0,1.0,1.0
425,1.0,0.593,1.023,0.0,1.0,0.0,1.0,0.0,125.0,1.0,0.5,0.0,0.0,1.0
426,1.0,0.967,1.488,0.0,1.0,1.0,2.0,1.0,126.0,1.0,0.5,1.0,1.0,1.0
427,1.0,0.667,1.202,0.0,1.0,3.0,0.0,1.0,127.0,1.0,0.5,0.0,0.0,1.0
428,1.0,1.106,1.133,1.0,1.0,9.0,4.0,1.0,128.0,1.0,0.5,0.0,0.0,1.0
429,1.0,0.905,0.69,0.0,1.0,5.0,1.0,0.0,129.0,1.0,0.5,1.0,0.0,1.0
430,1.0,0.768,1.063,0.0,1.0,2.0,0.0,1.0,130.0,1.0,0.5,1.0,1.0,1.0
431,1.0,0.682,1.306,0.0,1.0,3.0,0.0,1.0,131.0,1.0,0.5,0.0,0.0,1.0
432,1.0,0.991,1.39,1.0,1.0,9.0,4.0,0.0,132.0,1.0,0.5,1.0,1.0,1.0
433,1.0,1.193,0.566,1.0,0.0,6.0,4.0,1.0,133.0,1.0,0.5,0.0,0.0,1.0
434,1.0,0.709,0.519,1.0,0.0,6.0,4.0,1.0,134.0,1.0,0.5,0.0,1.0,1.0
435,1.0,0.897,0.822,1.0,0.0,8.0,4.0,0.0,135.0,1.0,0.5,0.0,0.0,1.0
436,1.0,1.535,0.419,1.0,1.0,9.0,4.0,0.0,136.0,1.0,0.5,0.0,1.0,1.0
437,1.0,1.011,0.878,0.0,0.0,5.0,3.0,0.0,137.0,1.0,0.5,1.0,0.0,1.0
438,1.0,1.201,1.086,0.0,1.0,4.0,1.0,0.0,138.0,1.0,0.5,1.0,1.0,1.0
439,1.0,0.52,0.833,0.0,0.0,4.0,1.0,1.0,139.0,1.0,0.5,1.0,1.0,1.0
440,1.0,1.19,1.183,1.0,1.0,9.0,4.0,1.0,140.0,1.0,0.5,1.0,0.0,1.0
441,1.0,0.77,0.749,1.0,1.0,8.0,4.0,1.0,141.0,1.0,0.5,1.0,1.0,1.0
442,1.0,0.934,1.374,0.0,0.0,2.0,3.0,1.0,142.0,1.0,0.5,0.0,1.0,1.0
443,1.0,1.212,1.328,0.0,0.0,6.0,1.0,0.0,143.0,1.0,0.5,1.0,1.0,1.0
444,1.0,0.948,1.47,0.0,0.0,5.0,3.0,0.0,144.0,1.0,0.5,0.0,1.0,1.0
445,1.0,0.991,1.323,1.0,1.0,9.0,4.0,0.0,145.0,1.0,0.5,1.0,0.0,1.0
446,1.0,1.372,0.63,0.0,1.0,2.0,0.0,1.0,146.0,1.0,0.5,1.0,0.0,1.0
447,1.0,0.826,0.903,0.0,0.0,5.0,1.0,1.0,147.0,1.0,0.5,1.0,0.0,1.0
448,1.0,0.555,0.59,0.0,1.0,2.0,0.0,0.0,148.0,1.0,0.5,1.0,0.0,1.0
449,1.0,0.603,1.522,0.0,0.0,1.0,2.0,0.0,149.0,1.0,0.5,0.0,0.0,1.0
450,1.0,0.772,1.486,0.0,1.0,6.0,4.0,0.0,150.0,1.0,0.5,1.0,0.0,1.0
451,1.0,0.799,1.305,1.0,1.0,9.0,3.0,1.0,151.0,1.0,0.5,0.0,1.0,1.0
452,1.0,1.039,0.812,0.0,1.0,7.0,2.0,1.0,152.0,1.0,0.5,1.0,0.0,1.0
453,1.0,1.451,1.251,0.0,0.0,1.0,0.0,1.0,153.0,1.0,0.5,1.0,0.0,1.0
454,1.0,0.461,0.6,0.0,0.0,0.0,0.0,1.0,154.0,1.0,0.5,1.0,0.0,1.0
455,1.0,0.933,0.63,0.0,1.0,7.0,2.0,1.0,155.0,1.0,0.5,0.0,1.0,1.0
456,1.0,0.68,1.587,0.0,0.0,0.0,1.0,1.0,156.0,1.0,0.5,0.0,1.0,1.0
457,1.0,0.695,1.127,0.0,0.0,2.0,0.0,1.0,157.0,1.0,0.5,1.0,1.0,1.0
458,1.0,1.254,0.883,1.0,1.0,8.0,4.0,0.0,158.0,1.0,0.5,0.0,0.0,1.0
459,1.0,0.99,1.134,0.0,1.0,5.0,3.0,1.0,159.0,1.0,0.5,1.0,0.0,1.0
460,1.0,0.883,0.387,1.0,1.0,9.0,4.0,0.0,160.0,1.0,0.5,0.0,1.0,1.0
461,1.0,0.76,0.894,0.0,1.0,7.0,2.0,0.0,161.0,1.0,0.5,0.0,1.0,1.0
462,1.0,1.061,1.288,0.0,0.0,8.0,4.0,1.0,162.0,1.0,0.5,1.0,1.0,1.0
463,1.0,1.074,1.472,1.0,1.0,4.0,1.0,0.0,163.0,1.0,0.5,0.0,1.0,1.0
464,1.0,0.952,1.319,0.0,0.0,8.0,4.0,0.0,164.0,1.0,0.5,0.0,0.0,1.0
465,1.0,1.198,0.876,0.0,1.0,5.0,3.0,0.0,165.0,1.0,0.5,0.0,0.0,1.0
466,1.0,0.819,1.58,0.0,0.0,7.0,3.0,0.0,166.0,1.0,0.5,0.0,0.0,1.0
467,1.0,0.855,1.685,0.0,1.0,5.0,3.0,1.0,167.0,1.0,0.5,0.0,1.0,1.0
468,1.0,0.719,0.626,0.0,0.0,3.0,0.0,1.0,168.0,1.0,0.5,1.0,1.0,1.0
469,1.0,1.171,1.513,1.0,1.0,9.0,4.0,0.0,169.0,1.0,0.5,1.0,0.0,1.0
470,1.0,0.696,0.524,0.0,0.0,2.0,0.0,0.0,170.0,1.0,0.5,0.0,1.0,1.0
471,1.0,1.028,0.592,0.0,1.0,4.0,1.0,1.0,171.0,1.0,0.5,0.0,1.0,1.0
472,1.0,1.297,1.032,0.0,1.0,4.0,1.0,1.0,172.0,1.0,0.5,1.0,1.0,1.0
473,1.0,1.089,0.934,0.0,1.0,7.0,2.0,0.0,173.0,1.0,0.5,1.0,0.0,1.0
474,1.0,0.639,0.681,0.0,1.0,0.0,0.0,1.0,174.0,1.0,0.5,1.0,1.0,1.0
475,1.0,1.023,0.766,1.0,0.0,8.0,2.0,1.0,175.0,1.0,0.5,0.0,1.0,1.0
476,1.0,0.686,1.784,0.0,1.0,3.0,0.0,0.0,176.0,1.0,0.5,1.0,0.0,1.0
477,1.0,0.866,1.142,1.0,0.0,6.0,1.0,1.0,177.0,1.0,0.5,1.0,0.0,1.0
478,1.0,1.232,0.986,1.0,0.0,9.0,4.0,0.0,178.0,1.0,0.5,0.0,1.0,1.0
479,1.0,0.927,0.894,0.0,0.0,3.0,0.0,1.0,179.0,1.0,0.5,0.0,1.0,1.0
480,1.0,0.959,0.8,1.0,0.0,9.0,4.0,1.0,180.0,1.0,0.5,0.0,0.0,1.0
481,1.0,0.83,1.234,0.0,0.0,1.0,0.0,1.0,181.0,1.0,0.5,1.0,0.0,1.0
482,1.0,1.103,0.91,1.0,1.0,6.0,4.0,0.0,182.0,1.0,0.5,0.0,0.0,1.0
483,1.0,0.99,1.209,0.0,0.0,5.0,1.0,0.0,183.0,1.0,0.5,1.0,1.0,1.0
484,1.0,1.539,1.372,1.0,0.0,8.0,4.0,1.0,184.0,1.0,0.5,1.0,1.0,1.0
485,1.0,1.036,1.097,0.0,0.0,8.0,2.0,1.0,185.0,1.0,0.5,1.0,0.0,1.0
486,1.0,0.675,0.992,1.0,1.0,9.0,3.0,0.0,186.0,1.0,0.5,1.0,1.0,1.0
487,1.0,1.871,1.141,0.0,0.0,4.0,1.0,0.0,187.0,1.0,0.5,0.0,0.0,1.0
488,1.0,0.636,1.274,0.0,1.0,2.0,3.0,1.0,188.0,1.0,0.5,0.0,1.0,1.0
489,1.0,0.864,0.781,0.0,0.0,3.0,0.0,1.0,189.0,1.0,0.5,1.0,0.0,1.0
490,1.0,1.107,0.735,0.0,1.0,5.0,1.0,0.0,190.0,1.0,0.5,1.0,0.0,1.0
491,1.0,0.899,1.217,0.0,0.0,2.0,3.0,1.0,191.0,1.0,0.5,0.0,1.0,1.0
492,1.0,0.843,1.02,1.0,0.0,4.0,2.0,0.0,192.0,1.0,0.5,1.0,0.0,1.0
493,1.0,1.018,1.333,1.0,0.0,7.0,3.0,1.0,193.0,1.0,0.5,1.0,0.0,1.0
494,1.0,1.314,0.994,0.0,0.0,0.0,0.0,0.0,194.0,1.0,0.5,1.0,0.0,1.0
495,1.0,0.658,1.5,0.0,1.0,1.0,2.0,0.0,195.0,1.0,0.5,0.0,1.0,1.0
496,1.0,0.518,0.721,0.0,1.0,0.0,0.0,1.0,196.0,1.0,0.5,1.0,1.0,1.0
497,1.0,0.72,1.019,0.0,1.0,2.0,3.0,1.0,197.0,1.0,0.5,0.0,0.0,1.0
498,1.0,0.721,0.73,0.0,1.0,2.0,0.0,0.0,198.0,1.0,0.5,0.0,0.0,1.0
499,1.0,1.118,1.676,0.0,0.0,4.0,1.0,0.0,199.0,1.0,0.5,1.0,0.0,1.0
500,1.0,0.768,1.54,1.0,1.0,9.0,4.0,0.0,200.0,1.0,0.5,0.0,0.0,1.0
501,1.0,0.704,0.646,0.0,0.0,2.0,0.0,0.0,201.0,1.0,0.5,1.0,0.0,1.0
502,1.0,0.476,0.996,0.0,1.0,8.0,4.0,0.0,202.0,1.0,0.5,0.0,1.0,1.0
503,1.0,0.908,1.099,1.0,0.0,6.0,4.0,0.0,203.0,1.0,0.5,1.0,0.0,1.0
504,1.0,0.862,1.664,0.0,0.0,7.0,2.0,1.0,204.0,1.0,0.5,1.0,0.0,1.0
505,1.0,0.809,0.718,1.0,0.0,4.0,2.0,0.0,205.0,1.0,0.5,1.0,1.0,1.0
506,1.0,0.977,1.387,1.0,0.0,4.0,2.0,1.0,206.0,1.0,0.5,0.0,1.0,1.0
507,1.0,0.803,0.924,0.0,0.0,8.0,2.0,0.0,207.0,1.0,0.5,1.0,0.0,1.0
508,1.0,0.952,0.743,0.0,0.0,0.0,0.0,0.0,208.0,1.0,0.5,1.0,0.0,1.0
509,1.0,0.66,1.033,0.0,0.0,6.0,1.0,0.0,209.0,1.0,0.5,0.0,1.0,1.0
510,1.0,0.821,0.852,0.0,1.0,2.0,0.0,1.0,210.0,1.0,0.5,1.0,0.0,1.0
511,1.0,0.833,1.4,1.0,0.0,7.0,3.0,1.0,211.0,1.0,0.5,1.0,1.0,1.0
512,1.0,0.674,1.193,0.0,1.0,0.0,1.0,1.0,212.0,1.0,0.5,0.0,0.0,1.0
513,1.0,0.891,1.082,0.0,1.0,8.0,2.0,1.0,213.0,1.0,0.5,1.0,1.0,1.0
514,1.0,1.028,0.759,0.0,0.0,9.0,4.0,0.0,214.0,1.0,0.5,0.0,1.0,1.0
515,1.0,0.585,0.594,1.0,1.0,9.0,4.0,0.0,215.0,1.0,0.5,0.0,0.0,1.0
516,1.0,0.76,0.629,0.0,1.0,0.0,0.0,0.0,216.0,1.0,0.5,0.0,1.0,1.0
517,1.0,0.938,0.865,0.0,0.0,7.0,2.0,1.0,217.0,1.0,0.5,0.0,0.0,1.0
518,1.0,0.609,1.189,1.0,1.0,4.0,2.0,0.0,218.0,1.0,0.5,1.0,0.0,1.0
519,1.0,0.623,0.533,0.0,0.0,0.0,0.0,1.0,219.0,1.0,0.5,0.0,1.0,1.0
520,1.0,0.77,0.831,1.0,1.0,8.0,4.0,0.0,220.0,1.0,0.5,0.0,1.0,1.0
521,1.0,0.634,1.48,0.0,1.0,9.0,4.0,1.0,221.0,1.0,0.5,0.0,1.0,1.0
522,1.0,0.787,0.797,1.0,1.0,4.0,1.0,1.0,222.0,1.0,0.5,0.0,0.0,1.0
523,1.0,0.687,0.822,0.0,1.0,0.0,0.0,0.0,223.0,1.0,0.5,1.0,1.0,1.0
524,1.0,0.716,1.014,1.0,1.0,7.0,3.0,0.0,224.0,1.0,0.5,0.0,0.0,1.0
525,1.0,0.739,0.843,1.0,0.0,7.0,3.0,1.0,225.0,1.0,0.5,0.0,0.0,1.0
526,1.0,0.874,1.631,1.0,1.0,2.0,0.0,0.0,226.0,1.0,0.5,1.0,0.0,1.0
527,1.0,0.898,1.131,1.0,0.0,5.0,3.0,1.0,227.0,1.0,0.5,1.0,0.0,1.0
528,1.0,0.777,1.314,0.0,0.0,1.0,2.0,0.0,228.0,1.0,0.5,1.0,1.0,1.0
529,1.0,1.199,1.086,1.0,1.0,5.0,1.0,1.0,229.0,1.0,0.5,1.0,0.0,1.0
530,1.0,0.868,1.129,0.0,0.0,3.0,0.0,0.0,230.0,1.0,0.5,1.0,1.0,1.0
531,1.0,0.872,0.686,0.0,0.0,2.0,0.0,1.0,231.0,1.0,0.5,1.0,1.0,1.0
532,1.0,0.83,0.824,0.0,0.0,1.0,0.0,1.0,232.0,1.0,0.5,1.0,1.0,1.0
533,1.0,0.678,0.991,0.0,0.0,1.0,0.0,1.0,233.0,1.0,0.5,1.0,0.0,1.0
534,1.0,0.545,0.578,0.0,0.0,1.0,0.0,1.0,234.0,1.0,0.5,1.0,1.0,1.0
535,1.0,0.607,1.445,0.0,0.0,3.0,4.0,1.0,235.0,1.0,0.5,1.0,1.0,1.0
536,1.0,1.632,1.074,1.0,1.0,6.0,1.0,1.0,236.0,1.0,0.5,1.0,0.0,1.0
537,1.0,1.018,1.522,0.0,0.0,3.0,0.0,0.0,237.0,1.0,0.5,1.0,0.0,1.0
538,1.0,1.564,1.253,0.0,0.0,7.0,3.0,1.0,238.0,1.0,0.5,1.0,0.0,1.0
539,1.0,1.785,1.605,1.0,0.0,5.0,3.0,0.0,239.0,1.0,0.5,0.0,0.0,1.0
540,1.0,0.731,1.786,0.0,1.0,0.0,1.0,1.0,240.0,1.0,0.5,1.0,0.0,1.0
541,1.0,0.509,1.225,0.0,1.0,1.0,2.0,0.0,241.0,1.0,0.5,1.0,0.0,1.0
542,1.0,0.866,1.111,0.0,0.0,2.0,0.0,1.0,242.0,1.0,0.5,0.0,0.0,1.0
543,1.0,1.411,0.989,0.0,1.0,8.0,4.0,0.0,243.0,1.0,0.5,0.0,1.0,1.0
544,1.0,0.68,0.867,0.0,0.0,3.0,0.0,0.0,244.0,1.0,0.5,0.0,0.0,1.0
545,1.0,0.561,0.866,0.0,1.0,3.0,0.0,1.0,245.0,1.0,0.5,0.0,1.0,1.0
546,1.0,1.141,0.876,0.0,0.0,6.0,1.0,0.0,246.0,1.0,0.5,1.0,0.0,1.0
547,1.0,0.746,1.601,0.0,0.0,4.0,2.0,0.0,247.0,1.0,0.5,1.0,0.0,1.0
548,1.0,0.694,0.816,1.0,0.0,4.0,2.0,0.0,248.0,1.0,0.5,1.0,1.0,1.0
549,1.0,0.698,1.198,0.0,1.0,2.0,0.0,0.0,249.0,1.0,0.5,1.0,1.0,1.0
550,1.0,1.021,0.798,0.0,0.0,5.0,1.0,0.0,250.0,1.0,0.5,0.0,1.0,1.0
551,1.0,0.923,0.901,1.0,1.0,9.0,3.0,0.0,251.0,1.0,0.5,0.0,0.0,1.0
552,1.0,0.502,0.877,1.0,0.0,7.0,3.0,0.0,252.0,1.0,0.5,1.0,0.0,1.0
553,1.0,0.464,1.555,1.0,0.0,4.0,1.0,1.0,253.0,1.0,0.5,0.0,0.0,1.0
554,1.0,0.634,0.58,1.0,0.0,4.0,2.0,0.0,254.0,1.0,0.5,1.0,1.0,1.0
555,1.0,0.612,0.771,1.0,1.0,4.0,2.0,0.0,255.0,1.0,0.5,0.0,0.0,1.0
556,1.0,0.704,0.661,0.0,1.0,9.0,3.0,0.0,256.0,1.0,0.5,1.0,0.0,1.0
557,1.0,0.463,1.011,0.0,0.0,1.0,2.0,1.0,257.0,1.0,0.5,1.0,0.0,1.0
558,1.0,0.675,1.647,0.0,0.0,4.0,2.0,1.0,258.0,1.0,0.5,1.0,0.0,1.0
559,1.0,0.776,1.108,0.0,0.0,6.0,1.0,0.0,259.0,1.0,0.5,1.0,0.0,1.0
560,1.0,0.844,1.686,0.0,1.0,2.0,3.0,0.0,260.0,1.0,0.5,1.0,0.0,1.0
561,1.0,0.83,0.993,1.0,1.0,8.0,4.0,1.0,261.0,1.0,0.5,0.0,0.0,1.0
562,1.0,0.818,0.723,0.0,0.0,1.0,0.0,1.0,262.0,1.0,0.5,0.0,0.0,1.0
563,1.0,0.564,0.651,0.0,0.0,0.0,0.0,0.0,263.0,1.0,0.5,0.0,1.0,1.0
564,1.0,0.597,0.457,0.0,1.0,1.0,0.0,0.0,264.0,1.0,0.5,0.0,0.0,1.0
565,1.0,0.675,0.882,0.0,1.0,5.0,1.0,1.0,265.0,1.0,0.5,1.0,1.0,1.0
566,1.0,0.738,1.326,1.0,0.0,7.0,2.0,1.0,266.0,1.0,0.5,0.0,1.0,1.0
567,1.0,0.669,0.629,0.0,0.0,4.0,2.0,1.0,267.0,1.0,0.5,1.0,1.0,1.0
568,1.0,0.695,0.888,1.0,1.0,9.0,4.0,1.0,268.0,1.0,0.5,1.0,0.0,1.0
569,1.0,0.795,0.857,0.0,1.0,2.0,0.0,0.0,269.0,1.0,0.5,0.0,0.0,1.0
570,1.0,0.69,0.666,1.0,1.0,7.0,3.0,0.0,270.0,1.0,0.5,1.0,1.0,1.0
571,1.0,0.645,0.561,1.0,1.0,5.0,1.0,1.0,271.0,1.0,0.5,0.0,0.0,1.0
572,1.0,0.657,0.567,1.0,0.0,4.0,2.0,0.0,272.0,1.0,0.5,1.0,0.0,1.0
573,1.0,0.624,0.646,1.0,0.0,6.0,4.0,0.0,273.0,1.0,0.5,1.0,1.0,1.0
574,1.0,0.475,0.539,1.0,1.0,4.0,1.0,1.0,274.0,1.0,0.5,0.0,0.0,1.0
575,1.0,1.222,1.386,0.0,1.0,1.0,2.0,0.0,275.0,1.0,0.5,0.0,1.0,1.0
576,1.0,0.362,0.517,0.0,1.0,0.0,0.0,0.0,276.0,1.0,0.5,0.0,0.0,1.0
577,1.0,0.637,0.783,0.0,0.0,6.0,4.0,1.0,277.0,1.0,0.5,0.0,0.0,1.0
578,1.0,0.689,0.91,1.0,0.0,5.0,1.0,1.0,278.0,1.0,0.5,0.0,0.0,1.0
579,1.0,1.102,1.032,0.0,1.0,2.0,0.0,1.0,279.0,1.0,0.5,1.0,1.0,1.0
580,1.0,0.985,0.583,0.0,0.0,4.0,1.0,1.0,280.0,1.0,0.5,0.0,0.0,1.0
581,1.0,0.72,0.725,1.0,0.0,8.0,2.0,0.0,281.0,1.0,0.5,1.0,1.0,1.0
582,1.0,0.858,1.748,0.0,1.0,0.0,0.0,0.0,282.0,1.0,0.5,0.0,0.0,1.0
583,1.0,1.492,0.72,0.0,1.0,9.0,3.0,0.0,283.0,1.0,0.5,0.0,0.0,1.0
584,1.0,0.916,0.49,0.0,1.0,6.0,4.0,0.0,284.0,1.0,0.5,1.0,0.0,1.0
585,1.0,0.683,0.766,0.0,1.0,4.0,2.0,1.0,285.0,1.0,0.5,0.0,0.0,1.0
586,1.0,0.405,0.98,1.0,0.0,4.0,1.0,0.0,286.0,1.0,0.5,1.0,0.0,1.0
587,1.0,0.485,0.559,0.0,0.0,8.0,2.0,1.0,287.0,1.0,0.5,1.0,0.0,1.0
588,1.0,0.852,0.677,0.0,1.0,7.0,3.0,0.0,288.0,1.0,0.5,0.0,1.0,1.0
589,1.0,0.617,0.666,1.0,0.0,1.0,2.0,0.0,289.0,1.0,0.5,1.0,0.0,1.0
590,1.0,0.511,0.728,1.0,1.0,0.0,1.0,0.0,290.0,1.0,0.5,1.0,1.0,1.0
591,1.0,0.765,0.646,0.0,0.0,6.0,1.0,0.0,291.0,1.0,0.5,1.0,1.0,1.0
592,1.0,0.562,0.896,0.0,0.0,3.0,4.0,0.0,292.0,1.0,0.5,0.0,1.0,1.0
593,1.0,0.622,1.215,0.0,1.0,1.0,0.0,0.0,293.0,1.0,0.5,1.0,1.0,1.0
594,1.0,0.826,0.725,0.0,1.0,0.0,1.0,0.0,294.0,1.0,0.5,0.0,1.0,1.0
595,1.0,0.649,0.885,0.0,0.0,1.0,0.0,0.0,295.0,1.0,0.5,0.0,0.0,1.0
596,2.0,1.367,1.303,1.0,0.0,3.0,4.0,1.0,0.0,1.0,0.5,1.0,1.0,1.0
597,2.0,1.531,1.128,1.0,0.0,7.0,3.0,0.0,1.0,1.0,0.5,0.0,0.0,1.0
598,2.0,0.893,1.472,1.0,1.0,2.0,3.0,0.0,2.0,1.0,0.5,1.0,1.0,1.0
599,2.0,0.75,0.718,1.0,0.0,8.0,4.0,0.0,3.0,1.0,0.5,1.0,1.0,1.0
600,2.0,0.97,1.423,0.0,1.0,5.0,1.0,1.0,4.0,1.0,0.5,1.0,0.0,1.0
601,2.0,0.91,0.862,1.0,1.0,3.0,4.0,1.0,5.0,1.0,0.5,0.0,1.0,1.0
602,2.0,0.729,0.715,1.0,1.0,8.0,4.0,1.0,6.0,1.0,0.5,0.0,0.0,1.0
603,2.0,0.466,0.692,1.0,1.0,8.0,4.0,1.0,7.0,1.0,0.5,1.0,1.0,1.0
604,2.0,0.54,0.575,1.0,1.0,9.0,4.0,0.0,8.0,1.0,0.5,0.0,1.0,1.0
605,2.0,0.45,0.677,1.0,1.0,6.0,4.0,0.0,9.0,1.0,0.5,0.0,0.0,1.0
606,2.0,1.07,1.365,0.0,1.0,7.0,2.0,1.0,10.0,1.0,0.5,1.0,0.0,1.0
607,2.0,0.916,0.789,1.0,1.0,1.0,2.0,1.0,11.0,1.0,0.5,0.0,1.0,1.0
608,2.0,0.43,0.742,0.0,1.0,7.0,2.0,0.0,12.0,1.0,0.5,0.0,0.0,1.0
609,2.0,0.95,1.612,1.0,1.0,0.0,0.0,0.0,13.0,1.0,0.5,0.0,1.0,1.0
610,2.0,0.747,0.801,1.0,1.0,4.0,2.0,0.0,14.0,1.0,0.5,0.0,1.0,1.0
611,2.0,0.936,0.952,0.0,1.0,4.0,1.0,0.0,15.0,1.0,0.5,1.0,0.0,1.0
612,2.0,1.048,0.548,1.0,0.0,0.0,1.0,1.0,16.0,1.0,0.5,0.0,1.0,1.0
613,2.0,1.371,0.952,0.0,1.0,2.0,0.0,0.0,17.0,1.0,0.5,1.0,1.0,1.0
614,2.0,0.814,1.022,0.0,0.0,2.0,0.0,0.0,18.0,1.0,0.5,0.0,1.0,1.0
615,2.0,1.122,0.594,0.0,1.0,8.0,2.0,0.0,19.0,1.0,0.5,1.0,1.0,1.0
616,2.0,1.084,1.158,0.0,1.0,5.0,3.0,1.0,20.0,1.0,0.5,1.0,1.0,1.0
617,2.0,1.19,0.794,1.0,0.0,4.0,2.0,0.0,21.0,1.0,0.5,1.0,0.0,1.0
618,2.0,0.934,1.032,0.0,0.0,4.0,1.0,0.0,22.0,1.0,0.5,0.0,0.0,1.0
619,2.0,0.924,1.569,1.0,0.0,8.0,2.0,0.0,23.0,1.0,0.5,0.0,1.0,1.0
620,2.0,0.592,1.134,1.0,1.0,3.0,4.0,1.0,24.0,1.0,0.5,0.0,0.0,1.0
621,2.0,1.006,0.944,1.0,0.0,0.0,1.0,1.0,25.0,1.0,0.5,0.0,1.0,1.0
622,2.0,0.606,1.497,1.0,0.0,3.0,0.0,1.0,26.0,1.0,0.5,0.0,0.0,1.0
623,2.0,0.748,0.588,1.0,1.0,9.0,4.0,0.0,27.0,1.0,0.5,1.0,0.0,1.0
624,2.0,0.88,0.927,0.0,0.0,7.0,3.0,0.0,28.0,1.0,0.5,0.0,0.0,1.0
625,2.0,0.889,1.203,1.0,0.0,1.0,0.0,1.0,29.0,1.0,0.5,0.0,0.0,1.0
626,2.0,0.857,1.473,1.0,0.0,8.0,4.0,1.0,30.0,1.0,0.5,0.0,1.0,1.0
627,2.0,0.678,1.001,0.0,0.0,3.0,4.0,1.0,31.0,1.0,0.5,1.0,1.0,1.0
628,2.0,1.111,1.251,0.0,1.0,5.0,3.0,0.0,32.0,1.0,0.5,1.0,1.0,1.0
629,2.0,1.315,0.637,0.0,0.0,5.0,1.0,1.0,33.0,1.0,0.5,1.0,0.0,1.0
630,2.0,1.402,0.646,0.0,0.0,0.0,0.0,1.0,34.0,1.0,0.5,1.0,0.0,1.0
631,2.0,0.721,1.258,1.0,0.0,9.0,4.0,1.0,35.0,1.0,0.5,0.0,1.0,1.0
632,2.0,1.183,1.068,0.0,1.0,7.0,2.0,1.0,36.0,1.0,0.5,1.0,0.0,1.0
633,2.0,1.379,1.585,0.0,1.0,1.0,2.0,0.0,37.0,1.0,0.5,1.0,0.0,1.0
634,2.0,0.669,0.821,0.0,0.0,1.0,0.0,0.0,38.0,1.0,0.5,1.0,0.0,1.0
635,2.0,1.123,1.084,0.0,0.0,0.0,1.0,1.0,39.0,1.0,0.5,1.0,0.0,1.0
636,2.0,0.885,0.504,0.0,0.0,5.0,1.0,1.0,40.0,1.0,0.5,1.0,0.0,1.0
637,2.0,0.506,1.305,0.0,0.0,5.0,3.0,1.0,41.0,1.0,0.5,1.0,0.0,1.0
638,2.0,0.818,0.89,0.0,0.0,2.0,0.0,1.0,42.0,1.0,0.5,0.0,0.0,1.0
639,2.0,1.379,0.991,0.0,0.0,7.0,3.0,0.0,43.0,1.0,0.5,1.0,0.0,1.0
640,2.0,0.84,0.982,0.0,0.0,1.0,0.0,0.0,44.0,1.0,0.5,1.0,1.0,1.0
641,2.0,1.265,0.434,0.0,0.0,4.0,1.0,0.0,45.0,1.0,0.5,1.0,0.0,1.0
642,2.0,0.797,0.438,0.0,0.0,4.0,1.0,1.0,46.0,1.0,0.5,0.0,0.0,1.0
643,2.0,0.883,0.438,1.0,0.0,8.0,4.0,1.0,47.0,1.0,0.5,1.0,1.0,1.0
644,2.0,0.69,1.176,1.0,0.0,0.0,0.0,1.0,48.0,1.0,0.5,0.0,1.0,1.0
645,2.0,0.94,1.256,0.0,1.0,1.0,2.0,0.0,49.0,1.0,0.5,1.0,0.0,1.0
646,2.0,0.593,0.822,0.0,0.0,1.0,0.0,1.0,50.0,1.0,0.5,1.0,1.0,1.0
647,2.0,0.617,0.859,0.0,0.0,3.0,0.0,1.0,51.0,1.0,0.5,1.0,0.0,1.0
648,2.0,0.858,0.739,0.0,0.0,5.0,1.0,1.0,52.0,1.0,0.5,1.0,1.0,1.0
649,2.0,1.24,1.104,0.0,0.0,0.0,1.0,0.0,53.0,1.0,0.5,1.0,1.0,1.0
650,2.0,0.896,1.458,1.0,0.0,6.0,4.0,1.0,54.0,1.0,0.5,1.0,0.0,1.0
651,2.0,0.608,0.558,0.0,0.0,5.0,1.0,1.0,55.0,1.0,0.5,1.0,1.0,1.0
652,2.0,0.677,0.724,0.0,0.0,1.0,0.0,1.0,56.0,1.0,0.5,0.0,1.0,1.0
653,2.0,0.709,1.567,0.0,0.0,4.0,2.0,1.0,57.0,1.0,0.5,1.0,0.0,1.0
654,2.0,0.736,1.06,1.0,0.0,3.0,0.0,0.0,58.0,1.0,0.5,1.0,1.0,1.0
655,2.0,1.227,0.808,0.0,0.0,0.0,1.0,1.0,59.0,1.0,0.5,1.0,0.0,1.0
656,2.0,1.015,0.973,1.0,0.0,8.0,2.0,1.0,60.0,1.0,0.5,1.0,0.0,1.0
657,2.0,1.015,0.915,1.0,0.0,8.0,4.0,1.0,61.0,1.0,0.5,0.0,0.0,1.0
658,2.0,0.814,0.921,0.0,0.0,2.0,0.0,1.0,62.0,1.0,0.5,1.0,1.0,1.0
659,2.0,0.574,0.966,1.0,0.0,9.0,4.0,1.0,63.0,1.0,0.5,1.0,1.0,1.0
660,2.0,1.238,0.955,0.0,0.0,1.0,0.0,1.0,64.0,1.0,0.5,1.0,1.0,1.0
661,2.0,1.169,0.884,1.0,0.0,8.0,2.0,1.0,65.0,1.0,0.5,0.0,0.0,1.0
662,2.0,0.744,1.122,0.0,0.0,2.0,3.0,0.0,66.0,1.0,0.5,1.0,1.0,1.0
663,2.0,0.653,0.656,0.0,0.0,2.0,0.0,0.0,67.0,1.0,0.5,1.0,0.0,1.0
664,2.0,1.247,0.498,1.0,0.0,0.0,1.0,1.0,68.0,1.0,0.5,1.0,0.0,1.0
665,2.0,0.633,0.84,0.0,0.0,2.0,0.0,1.0,69.0,1.0,0.5,0.0,0.0,1.0
666,2.0,0.671,0.717,0.0,0.0,1.0,2.0,0.0,70.0,1.0,0.5,0.0,0.0,1.0
667,2.0,0.716,0.742,1.0,0.0,6.0,4.0,1.0,71.0,1.0,0.5,0.0,1.0,1.0
668,2.0,0.659,0.612,0.0,0.0,0.0,0.0,1.0,72.0,1.0,0.5,0.0,1.0,1.0
669,2.0,0.767,0.79,0.0,0.0,3.0,0.0,1.0,73.0,1.0,0.5,0.0,1.0,1.0
670,2.0,0.801,0.993,1.0,0.0,9.0,3.0,0.0,74.0,1.0,0.5,1.0,0.0,1.0
671,2.0,0.862,0.773,1.0,0.0,6.0,4.0,0.0,75.0,1.0,0.5,1.0,0.0,1.0
672,2.0,1.598,0.971,0.0,0.0,6.0,4.0,1.0,76.0,1.0,0.5,1.0,1.0,1.0
673,2.0,1.047,0.571,0.0,0.0,7.0,2.0,1.0,77.0,1.0,0.5,1.0,0.0,1.0
674,2.0,0.45,0.383,1.0,0.0,1.0,2.0,0.0,78.0,1.0,0.5,1.0,0.0,1.0
675,2.0,0.832,0.607,0.0,0.0,5.0,1.0,0.0,79.0,1.0,0.5,1.0,0.0,1.0
676,2.0,1.382,0.543,0.0,0.0,1.0,0.0,1.0,80.0,1.0,0.5,0.0,1.0,1.0
677,2.0,0.702,0.742,0.0,0.0,1.0,0.0,1.0,81.0,1.0,0.5,0.0,1.0,1.0
678,2.0,1.274,0.715,1.0,0.0,6.0,4.0,1.0,82.0,1.0,0.5,1.0,0.0,1.0
679,2.0,1.36,1.064,0.0,0.0,0.0,1.0,1.0,83.0,1.0,0.5,1.0,0.0,1.0
680,2.0,0.561,0.78,1.0,0.0,9.0,4.0,1.0,84.0,1.0,0.5,0.0,1.0,1.0
681,2.0,1.034,0.781,0.0,0.0,5.0,1.0,0.0,85.0,1.0,0.5,1.0,0.0,1.0
682,2.0,0.819,0.865,0.0,0.0,7.0,3.0,0.0,86.0,1.0,0.5,0.0,1.0,1.0
683,2.0,0.866,0.695,0.0,0.0,2.0,0.0,0.0,87.0,1.0,0.5,0.0,1.0,1.0
684,2.0,1.013,0.647,1.0,0.0,0.0,1.0,0.0,88.0,1.0,0.5,0.0,1.0,1.0
685,2.0,1.357,0.551,1.0,0.0,1.0,2.0,1.0,89.0,1.0,0.5,0.0,0.0,1.0
686,2.0,0.51,1.34,0.0,0.0,8.0,4.0,0.0,90.0,1.0,0.5,0.0,0.0,1.0
687,2.0,1.259,0.745,1.0,1.0,0.0,1.0,0.0,91.0,1.0,0.5,0.0,0.0,1.0
688,2.0,1.186,0.636,0.0,0.0,8.0,2.0,0.0,92.0,1.0,0.5,0.0,1.0,1.0
689,2.0,0.794,1.112,1.0,1.0,9.0,3.0,0.0,93.0,1.0,0.5,0.0,0.0,1.0
690,2.0,1.669,0.803,0.0,0.0,4.0,1.0,1.0,94.0,1.0,0.5,1.0,0.0,1.0
691,2.0,1.378,0.949,1.0,0.0,3.0,0.0,0.0,95.0,1.0,0.5,1.0,1.0,1.0
692,2.0,0.878,0.653,0.0,1.0,7.0,2.0,1.0,96.0,1.0,0.5,1.0,0.0,1.0
693,2.0,1.633,0.827,1.0,0.0,3.0,0.0,1.0,97.0,1.0,0.5,0.0,1.0,1.0
694,2.0,1.106,0.796,1.0,0.0,6.0,4.0,1.0,98.0,1.0,0.5,0.0,0.0,1.0
695,2.0,1.103,0.896,0.0,0.0,8.0,4.0,1.0,99.0,1.0,0.5,0.0,0.0,1.0
696,2.0,0.929,0.536,0.0,0.0,5.0,1.0,0.0,100.0,1.0,0.5,1.0,1.0,1.0
697,2.0,1.083,1.031,1.0,0.0,6.0,1.0,0.0,101.0,1.0,0.5,1.0,1.0,1.0
698,2.0,0.668,0.922,0.0,1.0,7.0,2.0,1.0,102.0,1.0,0.5,0.0,0.0,1.0
699,2.0,0.512,0.764,0.0,1.0,7.0,2.0,1.0,103.0,1.0,0.5,0.0,1.0,1.0
700,2.0,1.202,0.853,0.0,1.0,2.0,0.0,0.0,104.0,1.0,0.5,0.0,1.0,1.0
701,2.0,0.787,0.809,1.0,1.0,4.0,2.0,1.0,105.0,1.0,0.5,1.0,0.0,1.0
702,2.0,1.921,0.574,1.0,1.0,2.0,3.0,1.0,106.0,1.0,0.5,0.0,0.0,1.0
703,2.0,1.02,0.892,1.0,1.0,4.0,2.0,1.0,107.0,1.0,0.5,1.0,0.0,1.0
704,2.0,1.807,0.638,1.0,0.0,6.0,1.0,1.0,108.0,1.0,0.5,1.0,1.0,1.0
705,2.0,1.779,0.486,1.0,0.0,0.0,1.0,0.0,109.0,1.0,0.5,0.0,0.0,1.0
706,2.0,0.882,0.734,0.0,1.0,8.0,2.0,1.0,110.0,1.0,0.5,0.0,1.0,1.0
707,2.0,0.555,0.534,1.0,1.0,1.0,2.0,1.0,111.0,1.0,0.5,0.0,0.0,1.0
708,2.0,1.168,0.958,1.0,1.0,9.0,3.0,1.0,112.0,1.0,0.5,1.0,0.0,1.0
709,2.0,0.688,0.84,1.0,0.0,4.0,1.0,1.0,113.0,1.0,0.5,0.0,1.0,1.0
710,2.0,1.391,0.892,1.0,0.0,3.0,0.0,0.0,114.0,1.0,0.5,1.0,0.0,1.0
711,2.0,1.535,0.69,1.0,0.0,9.0,4.0,0.0,115.0,1.0,0.5,1.0,0.0,1.0
712,2.0,0.84,1.437,1.0,1.0,1.0,2.0,0.0,116.0,1.0,0.5,1.0,1.0,1.0
713,2.0,0.751,1.468,1.0,0.0,1.0,0.0,1.0,117.0,1.0,0.5,0.0,0.0,1.0
714,2.0,1.426,0.812,0.0,0.0,0.0,0.0,1.0,118.0,1.0,0.5,1.0,1.0,1.0
715,2.0,1.959,0.846,1.0,0.0,6.0,1.0,0.0,119.0,1.0,0.5,1.0,0.0,1.0
716,2.0,0.955,0.869,1.0,1.0,1.0,2.0,0.0,120.0,1.0,0.5,1.0,0.0,1.0
717,2.0,1.674,0.705,1.0,0.0,3.0,4.0,0.0,121.0,1.0,0.5,0.0,0.0,1.0
718,2.0,1.374,0.471,0.0,0.0,6.0,1.0,0.0,122.0,1.0,0.5,1.0,0.0,1.0
719,2.0,1.338,0.985,0.0,1.0,9.0,3.0,1.0,123.0,1.0,0.5,1.0,1.0,1.0
720,2.0,0.64,1.55,0.0,0.0,8.0,4.0,0.0,124.0,1.0,0.5,0.0,0.0,1.0
721,2.0,1.493,0.977,0.0,1.0,7.0,3.0,1.0,125.0,1.0,0.5,1.0,1.0,1.0
722,2.0,0.992,0.484,1.0,1.0,5.0,3.0,1.0,126.0,1.0,0.5,1.0,0.0,1.0
723,2.0,1.872,1.043,1.0,0.0,0.0,1.0,0.0,127.0,1.0,0.5,1.0,1.0,1.0
724,2.0,1.165,1.148,1.0,1.0,4.0,2.0,0.0,128.0,1.0,0.5,1.0,1.0,1.0
725,2.0,1.186,0.429,0.0,1.0,9.0,3.0,1.0,129.0,1.0,0.5,0.0,1.0,1.0
726,2.0,0.983,1.092,0.0,0.0,8.0,2.0,0.0,130.0,1.0,0.5,1.0,1.0,1.0
727,2.0,1.2,1.433,0.0,1.0,9.0,4.0,1.0,131.0,1.0,0.5,0.0,1.0,1.0
728,2.0,0.645,1.425,1.0,1.0,6.0,1.0,0.0,132.0,1.0,0.5,0.0,0.0,1.0
729,2.0,1.026,1.518,1.0,1.0,4.0,1.0,0.0,133.0,1.0,0.5,1.0,0.0,1.0
730,2.0,1.263,1.012,1.0,0.0,0.0,0.0,1.0,134.0,1.0,0.5,1.0,1.0,1.0
731,2.0,1.704,1.006,1.0,0.0,6.0,1.0,0.0,135.0,1.0,0.5,1.0,0.0,1.0
732,2.0,1.229,0.685,0.0,0.0,3.0,0.0,0.0,136.0,1.0,0.5,0.0,0.0,1.0
733,2.0,1.334,0.992,1.0,1.0,6.0,4.0,1.0,137.0,1.0,0.5,0.0,0.0,1.0
734,2.0,1.651,0.515,1.0,1.0,7.0,3.0,1.0,138.0,1.0,0.5,0.0,1.0,1.0
735,2.0,1.061,1.203,0.0,1.0,8.0,2.0,1.0,139.0,1.0,0.5,0.0,1.0,1.0
736,2.0,0.503,0.826,0.0,1.0,8.0,2.0,1.0,140.0,1.0,0.5,0.0,1.0,1.0
737,2.0,1.229,0.499,1.0,1.0,7.0,3.0,1.0,141.0,1.0,0.5,0.0,1.0,1.0
738,2.0,1.9,1.019,1.0,0.0,6.0,1.0,0.0,142.0,1.0,0.5,1.0,1.0,1.0
739,2.0,0.943,0.838,0.0,0.0,0.0,0.0,1.0,143.0,1.0,0.5,0.0,1.0,1.0
740,2.0,1.016,0.455,1.0,1.0,7.0,3.0,1.0,144.0,1.0,0.5,0.0,1.0,1.0
741,2.0,1.515,1.268,0.0,1.0,3.0,4.0,1.0,145.0,1.0,0.5,0.0,1.0,1.0
742,2.0,1.076,0.516,0.0,0.0,9.0,3.0,0.0,146.0,1.0,0.5,0.0,1.0,1.0
743,2.0,0.85,0.976,1.0,0.0,2.0,0.0,1.0,147.0,1.0,0.5,1.0,1.0,1.0
744,2.0,0.895,0.981,0.0,0.0,0.0,0.0,1.0,148.0,1.0,0.5,1.0,1.0,1.0
745,2.0,0.987,0.58,1.0,1.0,5.0,3.0,1.0,149.0,1.0,0.5,1.0,0.0,1.0
746,2.0,1.32,0.923,0.0,0.0,1.0,0.0,1.0,150.0,1.0,0.5,0.0,0.0,1.0
747,2.0,1.29,0.542,1.0,1.0,2.0,3.0,1.0,151.0,1.0,0.5,0.0,0.0,1.0
748,2.0,0.751,0.608,1.0,1.0,2.0,3.0,1.0,152.0,1.0,0.5,0.0,0.0,1.0
749,2.0,0.691,0.474,1.0,1.0,5.0,3.0,1.0,153.0,1.0,0.5,0.0,0.0,1.0
750,2.0,1.549,1.301,1.0,0.0,6.0,1.0,1.0,154.0,1.0,0.5,0.0,0.0,1.0
751,2.0,0.834,0.778,0.0,0.0,0.0,1.0,0.0,155.0,1.0,0.5,0.0,0.0,1.0
752,2.0,0.793,0.611,1.0,0.0,5.0,1.0,0.0,156.0,1.0,0.5,1.0,0.0,1.0
753,2.0,0.518,0.972,1.0,0.0,2.0,0.0,1.0,157.0,1.0,0.5,0.0,0.0,1.0
754,2.0,1.166,0.757,1.0,0.0,5.0,1.0,0.0,158.0,1.0,0.5,1.0,1.0,1.0
755,2.0,1.701,0.958,0.0,1.0,3.0,4.0,0.0,159.0,1.0,0.5,0.0,0.0,1.0
756,2.0,1.392,0.936,0.0,0.0,3.0,0.0,0.0,160.0,1.0,0.5,1.0,1.0,1.0
757,2.0,1.515,0.563,1.0,1.0,6.0,4.0,0.0,161.0,1.0,0.5,1.0,0.0,1.0
758,2.0,0.981,1.091,1.0,0.0,2.0,0.0,0.0,162.0,1.0,0.5,1.0,1.0,1.0
759,2.0,0.803,0.53,1.0,1.0,7.0,3.0,1.0,163.0,1.0,0.5,1.0,1.0,1.0
760,2.0,0.651,0.483,1.0,1.0,7.0,3.0,1.0,164.0,1.0,0.5,1.0,1.0,1.0
761,2.0,1.068,0.599,1.0,0.0,6.0,4.0,1.0,165.0,1.0,0.5,0.0,1.0,1.0
762,2.0,0.91,0.889,1.0,0.0,2.0,0.0,1.0,166.0,1.0,0.5,0.0,1.0,1.0
763,2.0,1.193,0.722,1.0,0.0,8.0,4.0,1.0,167.0,1.0,0.5,1.0,1.0,1.0
764,2.0,0.725,0.538,1.0,1.0,5.0,3.0,0.0,168.0,1.0,0.5,0.0,1.0,1.0
765,2.0,0.849,0.423,1.0,1.0,5.0,3.0,1.0,169.0,1.0,0.5,1.0,1.0,1.0
766,2.0,1.718,1.097,1.0,1.0,1.0,2.0,1.0,170.0,1.0,0.5,0.0,0.0,1.0
767,2.0,0.507,0.871,1.0,0.0,4.0,1.0,0.0,171.0,1.0,0.5,0.0,0.0,1.0
768,2.0,0.961,0.556,0.0,1.0,9.0,3.0,0.0,172.0,1.0,0.5,0.0,1.0,1.0
769,2.0,0.716,0.486,1.0,1.0,7.0,3.0,1.0,173.0,1.0,0.5,1.0,1.0,1.0
770,2.0,1.343,0.919,1.0,0.0,6.0,4.0,1.0,174.0,1.0,0.5,0.0,1.0,1.0
771,2.0,1.189,0.947,0.0,1.0,7.0,2.0,1.0,175.0,1.0,0.5,1.0,1.0,1.0
772,2.0,1.597,0.882,0.0,0.0,0.0,0.0,1.0,176.0,1.0,0.5,1.0,0.0,1.0
773,2.0,1.249,0.753,0.0,1.0,7.0,3.0,1.0,177.0,1.0,0.5,0.0,0.0,1.0
774,2.0,1.321,0.718,0.0,0.0,7.0,2.0,1.0,178.0,1.0,0.5,1.0,1.0,1.0
775,2.0,1.32,1.045,0.0,1.0,8.0,2.0,1.0,179.0,1.0,0.5,0.0,0.0,1.0
776,2.0,1.505,0.571,1.0,1.0,5.0,3.0,0.0,180.0,1.0,0.5,1.0,1.0,1.0
777,2.0,1.265,0.805,0.0,0.0,0.0,1.0,0.0,181.0,1.0,0.5,0.0,1.0,1.0
778,2.0,1.901,1.254,0.0,1.0,7.0,2.0,1.0,182.0,1.0,0.5,1.0,0.0,1.0
779,2.0,1.673,1.028,0.0,0.0,3.0,0.0,0.0,183.0,1.0,0.5,0.0,1.0,1.0
780,2.0,1.123,0.701,1.0,1.0,4.0,2.0,0.0,184.0,1.0,0.5,1.0,1.0,1.0
781,2.0,1.67,0.665,0.0,0.0,0.0,0.0,1.0,185.0,1.0,0.5,1.0,0.0,1.0
782,2.0,1.038,1.029,1.0,0.0,4.0,1.0,1.0,186.0,1.0,0.5,0.0,0.0,1.0
783,2.0,1.347,0.869,1.0,1.0,1.0,2.0,1.0,187.0,1.0,0.5,1.0,1.0,1.0
784,2.0,1.67,1.286,0.0,0.0,9.0,4.0,1.0,188.0,1.0,0.5,0.0,1.0,1.0
785,2.0,1.854,0.802,0.0,1.0,2.0,3.0,1.0,189.0,1.0,0.5,0.0,0.0,1.0
786,2.0,0.892,0.69,0.0,0.0,2.0,0.0,0.0,190.0,1.0,0.5,0.0,1.0,1.0
787,2.0,0.899,0.607,1.0,1.0,5.0,3.0,1.0,191.0,1.0,0.5,0.0,1.0,1.0
788,2.0,1.445,0.604,0.0,0.0,0.0,0.0,1.0,192.0,1.0,0.5,0.0,1.0,1.0
789,2.0,1.332,0.804,1.0,0.0,3.0,0.0,1.0,193.0,1.0,0.5,0.0,1.0,1.0
790,2.0,1.212,0.863,1.0,0.0,6.0,4.0,0.0,194.0,1.0,0.5,1.0,0.0,1.0
791,2.0,1.256,0.899,0.0,1.0,7.0,2.0,1.0,195.0,1.0,0.5,1.0,0.0,1.0
792,2.0,0.591,0.61,1.0,1.0,1.0,2.0,1.0,196.0,1.0,0.5,0.0,0.0,1.0
793,2.0,0.449,0.725,1.0,1.0,1.0,2.0,0.0,197.0,1.0,0.5,1.0,1.0,1.0
794,2.0,0.945,0.629,1.0,1.0,1.0,2.0,0.0,198.0,1.0,0.5,0.0,0.0,1.0
795,2.0,1.658,0.652,0.0,0.0,0.0,0.0,0.0,199.0,1.0,0.5,0.0,1.0,1.0
796,2.0,1.649,0.671,0.0,1.0,9.0,3.0,0.0,200.0,1.0,0.5,0.0,0.0,1.0
797,2.0,1.066,1.055,1.0,0.0,9.0,4.0,0.0,201.0,1.0,0.5,1.0,0.0,1.0
798,2.0,1.471,0.519,1.0,1.0,2.0,3.0,0.0,202.0,1.0,0.5,1.0,1.0,1.0
799,2.0,1.248,0.913,1.0,0.0,3.0,4.0,1.0,203.0,1.0,0.5,1.0,1.0,1.0
800,2.0,1.197,0.894,1.0,1.0,1.0,2.0,1.0,204.0,1.0,0.5,1.0,0.0,1.0
801,2.0,0.508,1.118,1.0,0.0,1.0,0.0,1.0,205.0,1.0,0.5,1.0,1.0,1.0
802,2.0,0.741,1.319,0.0,1.0,7.0,3.0,0.0,206.0,1.0,0.5,1.0,0.0,1.0
803,2.0,0.577,1.075,1.0,0.0,4.0,1.0,0.0,207.0,1.0,0.5,1.0,1.0,1.0
804,2.0,0.782,0.804,0.0,1.0,7.0,2.0,1.0,208.0,1.0,0.5,0.0,1.0,1.0
805,2.0,0.762,0.936,0.0,1.0,8.0,2.0,1.0,209.0,1.0,0.5,0.0,1.0,1.0
806,2.0,1.371,0.64,0.0,0.0,5.0,1.0,1.0,210.0,1.0,0.5,1.0,1.0,1.0
807,2.0,1.562,0.961,1.0,0.0,3.0,4.0,1.0,211.0,1.0,0.5,1.0,1.0,1.0
808,2.0,0.761,1.08,1.0,0.0,0.0,0.0,1.0,212.0,1.0,0.5,1.0,1.0,1.0
809,2.0,1.33,0.887,1.0,0.0,3.0,0.0,1.0,213.0,1.0,0.5,0.0,0.0,1.0
810,2.0,0.873,0.883,1.0,0.0,9.0,4.0,1.0,214.0,1.0,0.5,0.0,0.0,1.0
811,2.0,1.714,1.024,1.0,0.0,0.0,0.0,1.0,215.0,1.0,0.5,0.0,0.0,1.0
812,2.0,1.686,0.823,1.0,0.0,4.0,1.0,1.0,216.0,1.0,0.5,0.0,1.0,1.0
813,2.0,1.822,0.542,0.0,0.0,6.0,1.0,1.0,217.0,1.0,0.5,0.0,0.0,1.0
814,2.0,0.974,0.87,1.0,1.0,1.0,2.0,0.0,218.0,1.0,0.5,1.0,1.0,1.0
815,2.0,0.981,0.615,0.0,0.0,5.0,1.0,1.0,219.0,1.0,0.5,0.0,0.0,1.0
816,2.0,1.778,1.359,1.0,0.0,9.0,4.0,0.0,220.0,1.0,0.5,1.0,0.0,1.0
817,2.0,1.121,0.469,0.0,0.0,5.0,1.0,1.0,221.0,1.0,0.5,0.0,0.0,1.0
818,2.0,0.876,1.119,0.0,1.0,7.0,2.0,0.0,222.0,1.0,0.5,0.0,0.0,1.0
819,2.0,0.807,0.558,1.0,0.0,9.0,4.0,1.0,223.0,1.0,0.5,0.0,1.0,1.0
820,2.0,0.789,0.685,1.0,0.0,3.0,4.0,1.0,224.0,1.0,0.5,1.0,0.0,1.0
821,2.0,0.811,0.532,1.0,0.0,8.0,4.0,0.0,225.0,1.0,0.5,1.0,0.0,1.0
822,2.0,0.832,1.701,1.0,0.0,8.0,2.0,0.0,226.0,1.0,0.5,1.0,1.0,1.0
823,2.0,0.732,0.873,1.0,0.0,9.0,4.0,0.0,227.0,1.0,0.5,0.0,1.0,1.0
824,2.0,0.953,1.142,1.0,0.0,6.0,4.0,1.0,228.0,1.0,0.5,0.0,1.0,1.0
825,2.0,1.318,0.507,0.0,0.0,6.0,1.0,0.0,229.0,1.0,0.5,1.0,1.0,1.0
826,2.0,1.71,0.842,0.0,1.0,5.0,3.0,1.0,230.0,1.0,0.5,0.0,0.0,1.0
827,2.0,1.035,0.669,1.0,0.0,9.0,4.0,1.0,231.0,1.0,0.5,1.0,0.0,1.0
828,2.0,1.333,0.473,0.0,0.0,6.0,1.0,1.0,232.0,1.0,0.5,0.0,1.0,1.0
829,2.0,1.31,0.703,0.0,0.0,2.0,0.0,1.0,233.0,1.0,0.5,0.0,1.0,1.0
830,2.0,1.332,0.776,0.0,1.0,8.0,2.0,0.0,234.0,1.0,0.5,0.0,1.0,1.0
831,2.0,0.796,0.759,0.0,0.0,1.0,0.0,0.0,235.0,1.0,0.5,0.0,1.0,1.0
832,2.0,0.834,0.618,1.0,0.0,9.0,4.0,1.0,236.0,1.0,0.5,0.0,1.0,1.0
833,2.0,0.979,0.912,0.0,0.0,2.0,0.0,1.0,237.0,1.0,0.5,0.0,0.0,1.0
834,2.0,1.068,0.549,0.0,0.0,1.0,0.0,1.0,238.0,1.0,0.5,1.0,1.0,1.0
835,2.0,1.492,0.579,0.0,0.0,6.0,1.0,0.0,239.0,1.0,0.5,0.0,0.0,1.0
836,2.0,1.313,0.473,0.0,0.0,4.0,1.0,0.0,240.0,1.0,0.5,1.0,1.0,1.0
837,2.0,0.875,0.841,1.0,0.0,3.0,0.0,0.0,241.0,1.0,0.5,0.0,0.0,1.0
838,2.0,1.185,0.647,1.0,0.0,6.0,1.0,1.0,242.0,1.0,0.5,1.0,0.0,1.0
839,2.0,1.461,0.606,0.0,0.0,0.0,0.0,0.0,243.0,1.0,0.5,0.0,1.0,1.0
840,2.0,0.98,1.267,1.0,0.0,3.0,4.0,0.0,244.0,1.0,0.5,1.0,1.0,1.0
841,2.0,0.87,1.101,1.0,1.0,7.0,2.0,1.0,245.0,1.0,0.5,1.0,1.0,1.0
842,2.0,1.033,0.617,1.0,0.0,8.0,4.0,1.0,246.0,1.0,0.5,0.0,0.0,1.0
843,2.0,1.483,0.553,1.0,1.0,2.0,3.0,1.0,247.0,1.0,0.5,0.0,1.0,1.0
844,2.0,0.652,0.443,1.0,1.0,7.0,3.0,1.0,248.0,1.0,0.5,1.0,1.0,1.0
845,2.0,1.176,1.088,0.0,0.0,9.0,4.0,1.0,249.0,1.0,0.5,0.0,0.0,1.0
846,2.0,0.842,0.959,1.0,0.0,2.0,0.0,1.0,250.0,1.0,0.5,0.0,0.0,1.0
847,2.0,1.3,1.001,0.0,0.0,9.0,4.0,1.0,251.0,1.0,0.5,1.0,1.0,1.0
848,2.0,0.875,0.61,1.0,0.0,8.0,4.0,0.0,252.0,1.0,0.5,1.0,1.0,1.0
849,2.0,1.136,0.397,1.0,1.0,5.0,3.0,1.0,253.0,1.0,0.5,0.0,1.0,1.0
850,2.0,1.664,0.813,1.0,0.0,0.0,0.0,0.0,254.0,1.0,0.5,0.0,1.0,1.0
851,2.0,1.514,0.767,0.0,1.0,8.0,2.0,1.0,255.0,1.0,0.5,1.0,0.0,1.0
852,2.0,1.698,0.976,1.0,0.0,0.0,0.0,1.0,256.0,1.0,0.5,1.0,1.0,1.0
853,2.0,1.284,0.458,0.0,1.0,7.0,2.0,1.0,257.0,1.0,0.5,1.0,1.0,1.0
854,2.0,0.909,0.547,1.0,1.0,4.0,2.0,1.0,258.0,1.0,0.5,1.0,1.0,1.0
855,2.0,0.954,0.413,0.0,1.0,8.0,2.0,0.0,259.0,1.0,0.5,0.0,1.0,1.0
856,2.0,1.054,0.466,1.0,1.0,2.0,3.0,1.0,260.0,1.0,0.5,1.0,0.0,1.0
857,2.0,0.667,0.51,1.0,1.0,5.0,3.0,1.0,261.0,1.0,0.5,1.0,0.0,1.0
858,2.0,0.566,0.84,1.0,0.0,5.0,1.0,1.0,262.0,1.0,0.5,1.0,0.0,1.0
859,2.0,0.558,0.88,1.0,0.0,2.0,0.0,0.0,263.0,1.0,0.5,1.0,1.0,1.0
860,2.0,1.083,0.606,1.0,0.0,6.0,4.0,1.0,264.0,1.0,0.5,1.0,1.0,1.0
861,2.0,1.153,0.607,1.0,0.0,6.0,1.0,0.0,265.0,1.0,0.5,0.0,1.0,1.0
862,2.0,1.043,0.817,1.0,1.0,4.0,2.0,1.0,266.0,1.0,0.5,0.0,0.0,1.0
863,2.0,0.568,0.572,1.0,0.0,4.0,1.0,0.0,267.0,1.0,0.5,0.0,1.0,1.0
864,2.0,0.894,0.526,1.0,0.0,4.0,1.0,0.0,268.0,1.0,0.5,1.0,1.0,1.0
865,2.0,0.945,0.385,0.0,1.0,9.0,3.0,1.0,269.0,1.0,0.5,0.0,0.0,1.0
866,2.0,0.665,0.653,1.0,0.0,5.0,1.0,1.0,270.0,1.0,0.5,1.0,1.0,1.0
867,2.0,0.556,0.652,1.0,1.0,5.0,3.0,1.0,271.0,1.0,0.5,1.0,0.0,1.0
868,2.0,1.376,0.539,1.0,0.0,3.0,4.0,1.0,272.0,1.0,0.5,0.0,1.0,1.0
869,2.0,0.779,0.567,1.0,0.0,6.0,4.0,1.0,273.0,1.0,0.5,0.0,0.0,1.0
870,2.0,0.747,0.832,1.0,1.0,4.0,2.0,1.0,274.0,1.0,0.5,1.0,0.0,1.0
871,2.0,1.063,0.457,0.0,1.0,9.0,3.0,1.0,275.0,1.0,0.5,0.0,1.0,1.0
872,2.0,0.743,0.835,1.0,0.0,3.0,0.0,0.0,276.0,1.0,0.5,0.0,0.0,1.0
873,2.0,0.681,0.485,1.0,1.0,2.0,3.0,0.0,277.0,1.0,0.5,1.0,0.0,1.0
874,2.0,0.834,0.757,1.0,1.0,1.0,2.0,0.0,278.0,1.0,0.5,1.0,1.0,1.0
875,2.0,1.144,0.488,0.0,1.0,8.0,2.0,1.0,279.0,1.0,0.5,0.0,1.0,1.0
876,2.0,0.58,0.594,1.0,1.0,4.0,2.0,0.0,280.0,1.0,0.5,1.0,0.0,1.0
877,2.0,0.998,1.03,0.0,0.0,9.0,4.0,1.0,281.0,1.0,0.5,0.0,0.0,1.0
878,2.0,1.362,0.95,0.0,1.0,4.0,2.0,1.0,282.0,1.0,0.5,0.0,0.0,1.0
879,2.0,0.79,0.799,1.0,0.0,2.0,0.0,0.0,283.0,1.0,0.5,0.0,1.0,1.0
880,2.0,1.431,0.593,1.0,0.0,3.0,4.0,1.0,284.0,1.0,0.5,0.0,1.0,1.0
881,2.0,0.825,0.868,1.0,1.0,8.0,2.0,0.0,285.0,1.0,0.5,1.0,0.0,1.0
882,2.0,0.885,0.776,1.0,0.0,3.0,4.0,1.0,286.0,1.0,0.5,1.0,1.0,1.0
883,2.0,1.404,0.533,1.0,1.0,5.0,3.0,0.0,287.0,1.0,0.5,1.0,1.0,1.0
884,2.0,1.022,0.56,1.0,1.0,4.0,2.0,0.0,288.0,1.0,0.5,1.0,1.0,1.0
885,2.0,0.67,0.53,0.0,0.0,4.0,1.0,0.0,289.0,1.0,0.5,0.0,0.0,1.0
886,2.0,1.049,0.492,0.0,1.0,9.0,3.0,0.0,290.0,1.0,0.5,0.0,1.0,1.0
887,2.0,0.966,0.635,0.0,0.0,2.0,0.0,0.0,291.0,1.0,0.5,1.0,0.0,1.0
888,2.0,1.306,0.499,0.0,0.0,4.0,1.0,1.0,292.0,1.0,0.5,1.0,0.0,1.0
889,2.0,1.005,0.75,0.0,1.0,2.0,3.0,1.0,293.0,1.0,0.5,0.0,0.0,1.0
890,2.0,1.441,0.638,1.0,0.0,3.0,4.0,0.0,294.0,1.0,0.5,1.0,0.0,1.0
891,2.0,1.052,0.624,0.0,0.0,3.0,0.0,1.0,295.0,1.0,0.5,0.0,0.0,1.0
892,2.0,1.255,0.767,1.0,1.0,9.0,3.0,1.0,296.0,1.0,0.5,1.0,1.0,1.0
893,2.0,1.162,0.511,0.0,0.0,4.0,1.0,0.0,297.0,1.0,0.5,1.0,0.0,1.0
894,2.0,1.061,0.65,1.0,0.0,6.0,1.0,1.0,298.0,1.0,0.5,0.0,0.0,1.0
895,3.0,1.924,1.045,1.0,0.0,6.0,4.0,0.0,0.0,1.0,0.5,0.0,0.0,1.0
896,3.0,0.893,0.831,1.0,0.0,2.0,3.0,0.0,1.0,1.0,0.5,1.0,1.0,1.0
897,3.0,0.55,0.972,0.0,1.0,3.0,0.0,1.0,2.0,1.0,0.5,0.0,1.0,1.0
898,3.0,0.9,0.783,0.0,0.0,8.0,2.0,0.0,3.0,1.0,0.5,1.0,0.0,1.0
899,3.0,0.558,0.428,0.0,1.0,7.0,2.0,0.0,4.0,1.0,0.5,1.0,1.0,1.0
900,3.0,0.744,0.684,1.0,0.0,8.0,4.0,1.0,5.0,1.0,0.5,1.0,1.0,1.0
901,3.0,0.609,0.477,0.0,1.0,3.0,0.0,1.0,6.0,1.0,0.5,1.0,0.0,1.0
902,3.0,0.617,0.66,1.0,0.0,4.0,2.0,1.0,7.0,1.0,0.5,0.0,0.0,1.0
903,3.0,0.953,1.081,0.0,1.0,5.0,1.0,1.0,8.0,1.0,0.5,0.0,0.0,1.0
904,3.0,0.453,0.49,0.0,1.0,1.0,0.0,0.0,9.0,1.0,0.5,0.0,0.0,1.0
905,3.0,0.851,0.444,0.0,0.0,2.0,0.0,1.0,10.0,1.0,0.5,0.0,1.0,1.0
906,3.0,1.029,0.952,1.0,1.0,7.0,3.0,1.0,11.0,1.0,0.5,0.0,1.0,1.0
907,3.0,0.524,0.592,0.0,0.0,3.0,0.0,1.0,12.0,1.0,0.5,0.0,1.0,1.0
908,3.0,0.457,1.028,0.0,0.0,0.0,1.0,0.0,13.0,1.0,0.5,0.0,0.0,1.0
909,3.0,0.689,1.282,0.0,0.0,4.0,2.0,0.0,14.0,1.0,0.5,1.0,1.0,1.0
910,3.0,0.736,0.91,0.0,0.0,1.0,0.0,1.0,15.0,1.0,0.5,0.0,0.0,1.0
911,3.0,1.215,0.866,0.0,0.0,2.0,0.0,1.0,16.0,1.0,0.5,1.0,1.0,1.0
912,3.0,0.84,0.982,0.0,0.0,2.0,3.0,1.0,17.0,1.0,0.5,1.0,0.0,1.0
913,3.0,0.745,0.501,1.0,0.0,5.0,3.0,0.0,18.0,1.0,0.5,0.0,0.0,1.0
914,3.0,1.219,0.718,0.0,1.0,4.0,1.0,1.0,19.0,1.0,0.5,1.0,1.0,1.0
915,3.0,0.659,0.43,0.0,1.0,8.0,2.0,1.0,20.0,1.0,0.5,0.0,0.0,1.0
916,3.0,1.036,0.7,0.0,0.0,2.0,0.0,0.0,21.0,1.0,0.5,1.0,1.0,1.0
917,3.0,0.752,0.7,0.0,0.0,4.0,1.0,0.0,22.0,1.0,0.5,1.0,1.0,1.0
918,3.0,0.909,0.998,1.0,1.0,7.0,3.0,1.0,23.0,1.0,0.5,1.0,1.0,1.0
919,3.0,0.659,0.712,0.0,1.0,6.0,1.0,1.0,24.0,1.0,0.5,0.0,1.0,1.0
920,3.0,0.819,0.73,1.0,1.0,7.0,3.0,1.0,25.0,1.0,0.5,1.0,0.0,1.0
921,3.0,0.706,0.662,0.0,0.0,3.0,0.0,0.0,26.0,1.0,0.5,1.0,0.0,1.0
922,3.0,0.487,1.163,0.0,0.0,9.0,4.0,1.0,27.0,1.0,0.5,1.0,1.0,1.0
923,3.0,0.887,0.708,0.0,1.0,0.0,0.0,1.0,28.0,1.0,0.5,0.0,0.0,1.0
924,3.0,1.112,1.011,0.0,0.0,6.0,4.0,1.0,29.0,1.0,0.5,1.0,0.0,1.0
925,3.0,0.839,0.628,1.0,1.0,7.0,3.0,1.0,30.0,1.0,0.5,0.0,0.0,1.0
926,3.0,0.984,0.647,1.0,1.0,2.0,3.0,1.0,31.0,1.0,0.5,0.0,1.0,1.0
927,3.0,0.638,1.058,0.0,1.0,1.0,0.0,1.0,32.0,1.0,0.5,0.0,1.0,1.0
928,3.0,0.809,0.858,1.0,0.0,8.0,2.0,1.0,33.0,1.0,0.5,0.0,0.0,1.0
929,3.0,0.735,0.444,0.0,1.0,0.0,0.0,0.0,34.0,1.0,0.5,0.0,0.0,1.0
930,3.0,0.804,0.86,0.0,1.0,4.0,1.0,1.0,35.0,1.0,0.5,1.0,0.0,1.0
931,3.0,0.641,0.653,0.0,0.0,3.0,0.0,1.0,36.0,1.0,0.5,0.0,0.0,1.0
932,3.0,0.666,0.748,0.0,1.0,1.0,2.0,1.0,37.0,1.0,0.5,0.0,1.0,1.0
933,3.0,0.835,0.683,0.0,0.0,0.0,0.0,1.0,38.0,1.0,0.5,1.0,0.0,1.0
934,3.0,0.713,0.771,0.0,1.0,6.0,1.0,1.0,39.0,1.0,0.5,1.0,1.0,1.0
935,3.0,0.763,0.845,0.0,0.0,6.0,4.0,1.0,40.0,1.0,0.5,0.0,0.0,1.0
936,3.0,0.884,0.613,0.0,1.0,6.0,1.0,1.0,41.0,1.0,0.5,1.0,1.0,1.0
937,3.0,0.501,0.842,0.0,1.0,5.0,1.0,1.0,42.0,1.0,0.5,0.0,0.0,1.0
938,3.0,0.636,0.599,0.0,1.0,4.0,1.0,1.0,43.0,1.0,0.5,0.0,0.0,1.0
939,3.0,0.886,0.587,1.0,1.0,0.0,1.0,1.0,44.0,1.0,0.5,1.0,0.0,1.0
940,3.0,0.739,0.548,0.0,1.0,9.0,3.0,1.0,45.0,1.0,0.5,0.0,1.0,1.0
941,3.0,0.475,0.807,0.0,1.0,4.0,1.0,1.0,46.0,1.0,0.5,1.0,1.0,1.0
942,3.0,0.651,0.933,1.0,1.0,2.0,3.0,0.0,47.0,1.0,0.5,0.0,0.0,1.0
943,3.0,0.607,0.789,0.0,1.0,4.0,1.0,0.0,48.0,1.0,0.5,0.0,1.0,1.0
944,3.0,0.542,0.731,0.0,1.0,1.0,0.0,1.0,49.0,1.0,0.5,0.0,1.0,1.0
945,3.0,0.568,0.893,0.0,0.0,3.0,4.0,1.0,50.0,1.0,0.5,0.0,0.0,1.0
946,3.0,0.681,0.917,0.0,1.0,1.0,2.0,1.0,51.0,1.0,0.5,0.0,1.0,1.0
947,3.0,0.778,0.694,0.0,1.0,5.0,1.0,0.0,52.0,1.0,0.5,1.0,0.0,1.0
948,3.0,0.836,1.13,1.0,1.0,3.0,0.0,1.0,53.0,1.0,0.5,1.0,1.0,1.0
949,3.0,0.476,0.864,1.0,0.0,6.0,4.0,1.0,54.0,1.0,0.5,0.0,1.0,1.0
950,3.0,0.998,0.71,0.0,1.0,0.0,0.0,1.0,55.0,1.0,0.5,0.0,1.0,1.0
951,3.0,0.726,0.514,1.0,1.0,5.0,3.0,1.0,56.0,1.0,0.5,0.0,1.0,1.0
952,3.0,0.454,0.591,1.0,1.0,8.0,4.0,1.0,57.0,1.0,0.5,0.0,1.0,1.0
953,3.0,0.804,0.551,0.0,1.0,4.0,1.0,1.0,58.0,1.0,0.5,0.0,1.0,1.0
954,3.0,0.811,0.51,1.0,0.0,6.0,1.0,0.0,59.0,1.0,0.5,1.0,0.0,1.0
955,3.0,0.455,0.979,1.0,0.0,6.0,4.0,1.0,60.0,1.0,0.5,1.0,1.0,1.0
956,3.0,0.841,1.019,1.0,1.0,2.0,0.0,0.0,61.0,1.0,0.5,1.0,0.0,1.0
957,3.0,0.62,0.923,1.0,1.0,8.0,2.0,1.0,62.0,1.0,0.5,0.0,1.0,1.0
958,3.0,0.555,0.643,1.0,0.0,8.0,4.0,0.0,63.0,1.0,0.5,1.0,0.0,1.0
959,3.0,0.563,0.73,0.0,0.0,1.0,0.0,0.0,64.0,1.0,0.5,0.0,1.0,1.0
960,3.0,0.716,0.501,1.0,1.0,0.0,1.0,0.0,65.0,1.0,0.5,0.0,1.0,1.0
961,3.0,0.836,1.311,1.0,0.0,6.0,1.0,0.0,66.0,1.0,0.5,0.0,0.0,1.0
962,3.0,0.741,0.749,0.0,0.0,1.0,0.0,0.0,67.0,1.0,0.5,0.0,1.0,1.0
963,3.0,0.642,0.782,1.0,1.0,0.0,1.0,1.0,68.0,1.0,0.5,1.0,1.0,1.0
964,3.0,0.573,0.494,0.0,1.0,1.0,0.0,1.0,69.0,1.0,0.5,1.0,1.0,1.0
965,3.0,0.633,0.639,1.0,0.0,3.0,4.0,1.0,70.0,1.0,0.5,0.0,1.0,1.0
966,3.0,0.595,0.753,0.0,1.0,2.0,3.0,1.0,71.0,1.0,0.5,0.0,0.0,1.0
967,3.0,0.566,0.688,1.0,0.0,6.0,1.0,1.0,72.0,1.0,0.5,1.0,1.0,1.0
968,3.0,0.607,0.558,0.0,1.0,4.0,1.0,0.0,73.0,1.0,0.5,0.0,0.0,1.0
969,3.0,0.626,0.723,0.0,1.0,1.0,0.0,0.0,74.0,1.0,0.5,1.0,1.0,1.0
970,3.0,0.665,0.911,0.0,1.0,5.0,1.0,0.0,75.0,1.0,0.5,0.0,1.0,1.0
971,3.0,0.582,0.817,1.0,1.0,8.0,2.0,1.0,76.0,1.0,0.5,0.0,1.0,1.0
972,3.0,1.125,0.954,0.0,0.0,8.0,4.0,1.0,77.0,1.0,0.5,1.0,0.0,1.0
973,3.0,0.662,0.766,1.0,0.0,4.0,2.0,0.0,78.0,1.0,0.5,0.0,1.0,1.0
974,3.0,0.716,1.063,1.0,1.0,2.0,0.0,0.0,79.0,1.0,0.5,0.0,1.0,1.0
975,3.0,0.778,0.48,1.0,0.0,3.0,4.0,0.0,80.0,1.0,0.5,0.0,0.0,1.0
976,3.0,0.681,0.857,0.0,1.0,3.0,0.0,0.0,81.0,1.0,0.5,1.0,0.0,1.0
977,3.0,0.62,0.976,0.0,1.0,4.0,2.0,0.0,82.0,1.0,0.5,0.0,1.0,1.0
978,3.0,0.535,0.781,0.0,1.0,5.0,1.0,1.0,83.0,1.0,0.5,1.0,1.0,1.0
979,3.0,0.475,0.488,0.0,1.0,6.0,1.0,1.0,84.0,1.0,0.5,1.0,1.0,1.0
980,3.0,0.653,0.451,1.0,0.0,8.0,4.0,0.0,85.0,1.0,0.5,1.0,0.0,1.0
981,3.0,1.247,1.073,0.0,1.0,5.0,3.0,1.0,86.0,1.0,0.5,1.0,0.0,1.0
982,3.0,0.945,0.474,1.0,1.0,2.0,3.0,1.0,87.0,1.0,0.5,1.0,0.0,1.0
983,3.0,0.563,0.677,1.0,1.0,2.0,3.0,0.0,88.0,1.0,0.5,1.0,0.0,1.0
984,3.0,0.958,0.487,0.0,1.0,8.0,2.0,0.0,89.0,1.0,0.5,1.0,1.0,1.0
985,3.0,0.892,0.715,1.0,1.0,5.0,3.0,0.0,90.0,1.0,0.5,0.0,1.0,1.0
986,3.0,0.845,0.736,0.0,1.0,1.0,0.0,0.0,91.0,1.0,0.5,0.0,0.0,1.0
987,3.0,0.722,0.88,1.0,1.0,8.0,4.0,0.0,92.0,1.0,0.5,0.0,0.0,1.0
988,3.0,0.754,0.69,1.0,0.0,5.0,3.0,1.0,93.0,1.0,0.5,1.0,0.0,1.0
989,3.0,1.288,0.646,0.0,0.0,4.0,1.0,1.0,94.0,1.0,0.5,0.0,1.0,1.0
990,3.0,1.007,1.106,1.0,1.0,6.0,4.0,1.0,95.0,1.0,0.5,0.0,0.0,1.0
991,3.0,0.8,0.875,0.0,1.0,1.0,2.0,0.0,96.0,1.0,0.5,0.0,1.0,1.0
992,3.0,0.738,0.865,0.0,1.0,4.0,2.0,1.0,97.0,1.0,0.5,0.0,0.0,1.0
993,3.0,0.576,0.511,0.0,0.0,5.0,1.0,1.0,98.0,1.0,0.5,0.0,0.0,1.0
994,3.0,0.494,0.66,0.0,0.0,5.0,1.0,0.0,99.0,1.0,0.5,1.0,1.0,1.0
995,3.0,0.601,0.593,1.0,1.0,3.0,4.0,1.0,100.0,1.0,0.5,0.0,1.0,1.0
996,3.0,0.559,0.528,1.0,1.0,8.0,4.0,1.0,101.0,1.0,0.5,0.0,1.0,1.0
997,3.0,0.561,1.174,1.0,0.0,9.0,3.0,0.0,102.0,1.0,0.5,0.0,1.0,1.0
998,3.0,0.816,0.813,0.0,0.0,5.0,1.0,0.0,103.0,1.0,0.5,1.0,1.0,1.0
999,3.0,0.759,0.553,1.0,1.0,0.0,1.0,0.0,104.0,1.0,0.5,0.0,0.0,1.0
1000,3.0,0.766,1.343,1.0,0.0,5.0,1.0,1.0,105.0,1.0,0.5,1.0,0.0,1.0
1001,3.0,0.614,0.991,1.0,0.0,6.0,1.0,1.0,106.0,1.0,0.5,0.0,1.0,1.0
1002,3.0,0.65,0.546,1.0,0.0,0.0,1.0,1.0,107.0,1.0,0.5,0.0,1.0,1.0
1003,3.0,0.539,0.563,1.0,1.0,8.0,4.0,1.0,108.0,1.0,0.5,0.0,1.0,1.0
1004,3.0,0.555,0.702,1.0,1.0,9.0,4.0,0.0,109.0,1.0,0.5,1.0,1.0,1.0
1005,3.0,0.597,0.749,0.0,1.0,1.0,0.0,0.0,110.0,1.0,0.5,0.0,1.0,1.0
1006,3.0,0.804,0.697,1.0,1.0,0.0,1.0,1.0,111.0,1.0,0.5,1.0,1.0,1.0
1007,3.0,1.12,0.816,0.0,1.0,7.0,2.0,1.0,112.0,1.0,0.5,1.0,0.0,1.0
1008,3.0,1.006,0.912,0.0,0.0,0.0,0.0,0.0,113.0,1.0,0.5,1.0,0.0,1.0
1009,3.0,1.089,0.81,1.0,0.0,7.0,3.0,0.0,114.0,1.0,0.5,1.0,1.0,1.0
1010,3.0,0.596,1.34,0.0,1.0,5.0,3.0,1.0,115.0,1.0,0.5,0.0,1.0,1.0
1011,3.0,0.834,1.314,1.0,1.0,9.0,3.0,0.0,116.0,1.0,0.5,1.0,0.0,1.0
1012,3.0,0.788,1.043,0.0,0.0,2.0,0.0,1.0,117.0,1.0,0.5,1.0,0.0,1.0
1013,3.0,0.739,0.462,0.0,0.0,0.0,0.0,1.0,118.0,1.0,0.5,1.0,1.0,1.0
1014,3.0,1.398,1.598,0.0,0.0,9.0,4.0,0.0,119.0,1.0,0.5,0.0,0.0,1.0
1015,3.0,1.025,0.46,0.0,1.0,7.0,2.0,1.0,120.0,1.0,0.5,1.0,1.0,1.0
1016,3.0,0.664,0.51,0.0,1.0,8.0,2.0,1.0,121.0,1.0,0.5,0.0,0.0,1.0
1017,3.0,0.463,0.472,1.0,1.0,1.0,2.0,0.0,122.0,1.0,0.5,0.0,1.0,1.0
1018,3.0,1.308,1.023,0.0,1.0,3.0,4.0,1.0,123.0,1.0,0.5,1.0,1.0,1.0
1019,3.0,0.454,0.602,1.0,1.0,8.0,4.0,0.0,124.0,1.0,0.5,1.0,0.0,1.0
1020,3.0,0.714,1.397,0.0,0.0,9.0,4.0,0.0,125.0,1.0,0.5,0.0,1.0,1.0
1021,3.0,1.061,1.218,0.0,1.0,8.0,4.0,1.0,126.0,1.0,0.5,0.0,0.0,1.0
1022,3.0,1.237,1.201,1.0,0.0,0.0,0.0,1.0,127.0,1.0,0.5,1.0,1.0,1.0
1023,3.0,0.583,0.683,1.0,1.0,0.0,1.0,1.0,128.0,1.0,0.5,0.0,1.0,1.0
1024,3.0,0.896,0.518,1.0,1.0,9.0,4.0,0.0,129.0,1.0,0.5,1.0,1.0,1.0
1025,3.0,0.797,0.536,0.0,0.0,3.0,0.0,1.0,130.0,1.0,0.5,1.0,0.0,1.0
1026,3.0,0.553,1.08,1.0,0.0,0.0,0.0,0.0,131.0,1.0,0.5,1.0,0.0,1.0
1027,3.0,0.433,1.177,0.0,1.0,6.0,1.0,0.0,132.0,1.0,0.5,1.0,0.0,1.0
1028,3.0,0.885,0.523,0.0,1.0,7.0,2.0,1.0,133.0,1.0,0.5,0.0,0.0,1.0
1029,3.0,0.449,1.074,0.0,0.0,8.0,4.0,1.0,134.0,1.0,0.5,0.0,1.0,1.0
1030,3.0,0.581,0.958,0.0,1.0,8.0,2.0,1.0,135.0,1.0,0.5,0.0,0.0,1.0
1031,3.0,0.544,1.248,1.0,1.0,9.0,3.0,1.0,136.0,1.0,0.5,1.0,1.0,1.0
1032,3.0,0.553,0.877,1.0,1.0,7.0,3.0,0.0,137.0,1.0,0.5,1.0,0.0,1.0
1033,3.0,0.729,0.533,1.0,0.0,3.0,4.0,0.0,138.0,1.0,0.5,1.0,0.0,1.0
1034,3.0,1.209,1.117,0.0,1.0,7.0,3.0,1.0,139.0,1.0,0.5,1.0,0.0,1.0
1035,3.0,0.55,0.564,1.0,1.0,1.0,2.0,0.0,140.0,1.0,0.5,0.0,1.0,1.0
1036,3.0,0.824,0.588,1.0,1.0,9.0,4.0,1.0,141.0,1.0,0.5,1.0,1.0,1.0
1037,3.0,0.475,1.054,0.0,0.0,2.0,0.0,1.0,142.0,1.0,0.5,1.0,0.0,1.0
1038,3.0,0.492,0.534,0.0,0.0,1.0,0.0,1.0,143.0,1.0,0.5,1.0,0.0,1.0
1039,3.0,0.653,0.719,0.0,1.0,5.0,1.0,1.0,144.0,1.0,0.5,1.0,1.0,1.0
1040,3.0,0.586,0.853,0.0,1.0,6.0,4.0,0.0,145.0,1.0,0.5,0.0,1.0,1.0
1041,3.0,0.632,0.492,0.0,0.0,3.0,0.0,1.0,146.0,1.0,0.5,0.0,1.0,1.0
1042,3.0,0.69,0.492,0.0,0.0,3.0,0.0,0.0,147.0,1.0,0.5,1.0,1.0,1.0
1043,3.0,0.597,0.534,1.0,1.0,2.0,3.0,1.0,148.0,1.0,0.5,0.0,0.0,1.0
1044,3.0,0.726,0.566,0.0,1.0,1.0,0.0,0.0,149.0,1.0,0.5,0.0,1.0,1.0
1045,3.0,1.304,0.765,1.0,1.0,9.0,4.0,0.0,150.0,1.0,0.5,0.0,0.0,1.0
1046,3.0,0.561,0.703,0.0,0.0,3.0,0.0,0.0,151.0,1.0,0.5,1.0,0.0,1.0
1047,3.0,0.704,1.188,1.0,1.0,1.0,0.0,1.0,152.0,1.0,0.5,0.0,1.0,1.0
1048,3.0,0.774,0.608,1.0,1.0,9.0,4.0,0.0,153.0,1.0,0.5,1.0,0.0,1.0
1049,3.0,0.769,0.832,1.0,1.0,0.0,1.0,0.0,154.0,1.0,0.5,0.0,0.0,1.0
1050,3.0,0.745,0.473,0.0,1.0,1.0,0.0,1.0,155.0,1.0,0.5,1.0,1.0,1.0
1051,3.0,0.485,0.468,0.0,1.0,1.0,0.0,1.0,156.0,1.0,0.5,1.0,1.0,1.0
1052,3.0,0.468,0.391,0.0,1.0,2.0,0.0,1.0,157.0,1.0,0.5,0.0,1.0,1.0
1053,3.0,0.436,1.916,0.0,0.0,2.0,3.0,0.0,158.0,1.0,0.5,0.0,0.0,1.0
1054,3.0,0.567,1.132,0.0,1.0,0.0,0.0,1.0,159.0,1.0,0.5,1.0,1.0,1.0
1055,3.0,0.657,0.685,1.0,1.0,7.0,3.0,0.0,160.0,1.0,0.5,1.0,0.0,1.0
1056,3.0,0.591,0.49,0.0,1.0,0.0,0.0,1.0,161.0,1.0,0.5,1.0,0.0,1.0
1057,3.0,0.528,0.453,0.0,1.0,2.0,0.0,1.0,162.0,1.0,0.5,0.0,0.0,1.0
1058,3.0,0.9,0.527,0.0,1.0,4.0,1.0,0.0,163.0,1.0,0.5,1.0,1.0,1.0
1059,3.0,0.889,1.071,1.0,0.0,9.0,3.0,0.0,164.0,1.0,0.5,0.0,1.0,1.0
1060,3.0,0.764,0.684,0.0,1.0,9.0,3.0,0.0,165.0,1.0,0.5,0.0,0.0,1.0
1061,3.0,0.63,0.842,0.0,1.0,3.0,0.0,1.0,166.0,1.0,0.5,1.0,0.0,1.0
1062,3.0,1.115,1.799,1.0,1.0,9.0,3.0,1.0,167.0,1.0,0.5,1.0,1.0,1.0
1063,3.0,0.806,0.614,0.0,1.0,9.0,3.0,0.0,168.0,1.0,0.5,1.0,0.0,1.0
1064,3.0,0.639,0.788,0.0,1.0,6.0,1.0,1.0,169.0,1.0,0.5,1.0,1.0,1.0
1065,3.0,0.657,0.685,1.0,1.0,7.0,3.0,1.0,170.0,1.0,0.5,0.0,1.0,1.0
1066,3.0,0.445,0.694,1.0,1.0,0.0,0.0,0.0,171.0,1.0,0.5,1.0,0.0,1.0
1067,3.0,0.61,1.173,0.0,1.0,3.0,4.0,0.0,172.0,1.0,0.5,0.0,1.0,1.0
1068,3.0,0.577,0.663,0.0,1.0,6.0,1.0,0.0,173.0,1.0,0.5,0.0,0.0,1.0
1069,3.0,0.683,0.818,1.0,1.0,5.0,3.0,1.0,174.0,1.0,0.5,1.0,1.0,1.0
1070,3.0,0.669,0.767,0.0,0.0,1.0,0.0,0.0,175.0,1.0,0.5,1.0,0.0,1.0
1071,3.0,0.507,0.747,1.0,1.0,9.0,4.0,1.0,176.0,1.0,0.5,0.0,1.0,1.0
1072,3.0,0.512,0.465,1.0,1.0,9.0,4.0,0.0,177.0,1.0,0.5,0.0,1.0,1.0
1073,3.0,0.534,0.464,0.0,1.0,5.0,1.0,0.0,178.0,1.0,0.5,1.0,0.0,1.0
1074,3.0,0.494,0.478,1.0,0.0,5.0,3.0,0.0,179.0,1.0,0.5,1.0,0.0,1.0
1075,3.0,0.693,0.624,1.0,0.0,9.0,4.0,0.0,180.0,1.0,0.5,1.0,1.0,1.0
1076,3.0,0.591,0.955,0.0,0.0,9.0,4.0,1.0,181.0,1.0,0.5,1.0,1.0,1.0
1077,3.0,0.764,0.81,0.0,0.0,4.0,1.0,0.0,182.0,1.0,0.5,0.0,0.0,1.0
1078,3.0,0.756,0.688,0.0,1.0,7.0,2.0,0.0,183.0,1.0,0.5,1.0,1.0,1.0
1079,3.0,0.512,0.639,1.0,1.0,7.0,3.0,0.0,184.0,1.0,0.5,1.0,0.0,1.0
1080,3.0,0.682,1.068,0.0,0.0,7.0,3.0,1.0,185.0,1.0,0.5,1.0,1.0,1.0
1081,3.0,0.661,1.292,1.0,0.0,4.0,1.0,1.0,186.0,1.0,0.5,1.0,0.0,1.0
1082,3.0,0.755,0.614,1.0,1.0,1.0,2.0,1.0,187.0,1.0,0.5,1.0,1.0,1.0
1083,3.0,0.503,0.836,1.0,0.0,4.0,1.0,0.0,188.0,1.0,0.5,0.0,1.0,1.0
1084,3.0,0.63,0.459,1.0,0.0,5.0,3.0,0.0,189.0,1.0,0.5,0.0,1.0,1.0
1085,3.0,0.752,0.688,0.0,1.0,5.0,1.0,1.0,190.0,1.0,0.5,1.0,0.0,1.0
1086,3.0,0.764,0.678,0.0,0.0,7.0,2.0,1.0,191.0,1.0,0.5,1.0,0.0,1.0
1087,3.0,0.81,0.742,1.0,1.0,8.0,4.0,0.0,192.0,1.0,0.5,0.0,0.0,1.0
1088,3.0,0.643,0.594,0.0,1.0,5.0,1.0,0.0,193.0,1.0,0.5,1.0,0.0,1.0
1089,3.0,0.763,0.451,0.0,1.0,0.0,0.0,1.0,194.0,1.0,0.5,0.0,0.0,1.0
1090,3.0,0.703,0.725,1.0,1.0,7.0,3.0,1.0,195.0,1.0,0.5,1.0,0.0,1.0
1091,3.0,0.772,0.567,1.0,1.0,5.0,3.0,0.0,196.0,1.0,0.5,1.0,1.0,1.0
1092,3.0,0.739,1.384,0.0,0.0,4.0,2.0,0.0,197.0,1.0,0.5,1.0,0.0,1.0
1093,3.0,0.672,0.595,0.0,1.0,4.0,2.0,0.0,198.0,1.0,0.5,0.0,1.0,1.0
1094,3.0,0.735,0.468,1.0,1.0,7.0,3.0,0.0,199.0,1.0,0.5,1.0,0.0,1.0
1095,3.0,0.855,0.485,0.0,1.0,7.0,2.0,1.0,200.0,1.0,0.5,0.0,0.0,1.0
1096,3.0,0.754,0.816,0.0,1.0,2.0,0.0,0.0,201.0,1.0,0.5,1.0,1.0,1.0
1097,3.0,0.775,0.482,1.0,0.0,9.0,4.0,1.0,202.0,1.0,0.5,1.0,1.0,1.0
1098,3.0,0.459,0.468,1.0,0.0,6.0,4.0,1.0,203.0,1.0,0.5,0.0,1.0,1.0
1099,3.0,0.688,0.876,0.0,1.0,4.0,2.0,0.0,204.0,1.0,0.5,0.0,0.0,1.0
1100,3.0,0.76,0.814,1.0,0.0,7.0,2.0,0.0,205.0,1.0,0.5,1.0,1.0,1.0
1101,3.0,0.628,1.008,1.0,1.0,7.0,3.0,0.0,206.0,1.0,0.5,0.0,1.0,1.0
1102,3.0,0.601,0.563,1.0,0.0,6.0,4.0,1.0,207.0,1.0,0.5,0.0,0.0,1.0
1103,3.0,0.475,0.656,1.0,0.0,6.0,4.0,1.0,208.0,1.0,0.5,0.0,1.0,1.0
1104,3.0,0.787,0.452,0.0,0.0,2.0,0.0,1.0,209.0,1.0,0.5,1.0,0.0,1.0
1105,3.0,0.975,1.067,0.0,0.0,7.0,2.0,0.0,210.0,1.0,0.5,1.0,0.0,1.0
1106,3.0,1.384,0.579,0.0,0.0,0.0,0.0,1.0,211.0,1.0,0.5,0.0,0.0,1.0
1107,3.0,0.682,1.038,0.0,1.0,4.0,1.0,0.0,212.0,1.0,0.5,1.0,0.0,1.0
1108,3.0,0.779,0.434,1.0,1.0,4.0,2.0,0.0,213.0,1.0,0.5,1.0,1.0,1.0
1109,3.0,0.43,1.109,0.0,1.0,2.0,3.0,0.0,214.0,1.0,0.5,1.0,0.0,1.0
1110,3.0,0.468,0.629,0.0,0.0,3.0,0.0,1.0,215.0,1.0,0.5,0.0,0.0,1.0
1111,3.0,0.524,0.738,1.0,0.0,9.0,4.0,1.0,216.0,1.0,0.5,1.0,0.0,1.0
1112,3.0,0.53,0.803,1.0,1.0,8.0,2.0,1.0,217.0,1.0,0.5,0.0,0.0,1.0
1113,3.0,0.418,0.869,1.0,1.0,8.0,2.0,0.0,218.0,1.0,0.5,0.0,1.0,1.0
1114,3.0,0.433,0.738,1.0,0.0,6.0,4.0,1.0,219.0,1.0,0.5,1.0,1.0,1.0
1115,3.0,0.582,0.586,0.0,1.0,4.0,1.0,1.0,220.0,1.0,0.5,1.0,1.0,1.0
1116,3.0,0.455,0.993,1.0,1.0,8.0,2.0,0.0,221.0,1.0,0.5,1.0,0.0,1.0
1117,3.0,0.492,1.017,1.0,0.0,8.0,2.0,1.0,222.0,1.0,0.5,1.0,1.0,1.0
1118,3.0,0.738,0.598,1.0,1.0,0.0,1.0,1.0,223.0,1.0,0.5,1.0,1.0,1.0
1119,3.0,0.428,0.985,1.0,0.0,3.0,0.0,1.0,224.0,1.0,0.5,0.0,1.0,1.0
1120,3.0,0.562,0.974,0.0,1.0,4.0,1.0,1.0,225.0,1.0,0.5,1.0,1.0,1.0
1121,3.0,0.759,0.627,1.0,1.0,0.0,1.0,1.0,226.0,1.0,0.5,0.0,1.0,1.0
1122,3.0,0.69,0.629,0.0,1.0,7.0,2.0,1.0,227.0,1.0,0.5,0.0,0.0,1.0
1123,3.0,0.495,0.762,1.0,0.0,3.0,4.0,1.0,228.0,1.0,0.5,1.0,1.0,1.0
1124,3.0,0.506,0.573,1.0,0.0,8.0,4.0,1.0,229.0,1.0,0.5,0.0,0.0,1.0
1125,3.0,0.562,0.82,0.0,1.0,4.0,1.0,1.0,230.0,1.0,0.5,0.0,0.0,1.0
1126,3.0,0.603,0.702,0.0,1.0,5.0,1.0,1.0,231.0,1.0,0.5,1.0,0.0,1.0
1127,3.0,0.458,0.551,0.0,0.0,4.0,1.0,1.0,232.0,1.0,0.5,0.0,0.0,1.0
1128,3.0,0.585,0.748,1.0,0.0,3.0,0.0,1.0,233.0,1.0,0.5,1.0,0.0,1.0
1129,3.0,0.612,0.894,1.0,1.0,0.0,1.0,1.0,234.0,1.0,0.5,0.0,0.0,1.0
1130,3.0,0.715,0.772,0.0,1.0,0.0,1.0,1.0,235.0,1.0,0.5,0.0,0.0,1.0
1131,3.0,0.695,0.738,1.0,1.0,8.0,2.0,1.0,236.0,1.0,0.5,1.0,0.0,1.0
1132,3.0,0.619,0.772,1.0,0.0,3.0,4.0,0.0,237.0,1.0,0.5,1.0,1.0,1.0
1133,3.0,0.644,0.64,0.0,1.0,4.0,1.0,1.0,238.0,1.0,0.5,1.0,1.0,1.0
1134,3.0,0.615,0.706,0.0,0.0,5.0,1.0,1.0,239.0,1.0,0.5,1.0,1.0,1.0
1135,3.0,0.585,0.615,0.0,1.0,1.0,2.0,1.0,240.0,1.0,0.5,0.0,0.0,1.0
1136,3.0,0.49,0.597,0.0,0.0,1.0,0.0,1.0,241.0,1.0,0.5,1.0,1.0,1.0
1137,3.0,0.505,0.708,0.0,0.0,0.0,0.0,0.0,242.0,1.0,0.5,0.0,1.0,1.0
1138,3.0,0.63,0.486,0.0,1.0,7.0,2.0,1.0,243.0,1.0,0.5,1.0,0.0,1.0
1139,3.0,0.559,0.872,1.0,0.0,3.0,0.0,1.0,244.0,1.0,0.5,1.0,0.0,1.0
1140,3.0,0.639,0.795,1.0,0.0,6.0,4.0,0.0,245.0,1.0,0.5,1.0,0.0,1.0
1141,3.0,0.564,0.591,0.0,1.0,5.0,1.0,1.0,246.0,1.0,0.5,1.0,1.0,1.0
1142,3.0,0.766,1.045,0.0,1.0,2.0,0.0,1.0,247.0,1.0,0.5,1.0,1.0,1.0
1143,3.0,0.836,0.496,0.0,1.0,8.0,2.0,1.0,248.0,1.0,0.5,0.0,0.0,1.0
1144,3.0,0.58,1.407,1.0,1.0,9.0,3.0,0.0,249.0,1.0,0.5,1.0,1.0,1.0
1145,3.0,1.053,1.105,0.0,1.0,3.0,4.0,1.0,250.0,1.0,0.5,1.0,1.0,1.0
1146,3.0,0.641,0.701,0.0,1.0,5.0,1.0,0.0,251.0,1.0,0.5,0.0,0.0,1.0
1147,3.0,0.485,0.965,0.0,0.0,2.0,3.0,0.0,252.0,1.0,0.5,1.0,1.0,1.0
1148,3.0,0.712,0.658,1.0,1.0,9.0,4.0,1.0,253.0,1.0,0.5,0.0,1.0,1.0
1149,3.0,0.81,0.594,0.0,1.0,7.0,2.0,1.0,254.0,1.0,0.5,1.0,1.0,1.0
1150,3.0,0.819,1.321,0.0,1.0,6.0,4.0,1.0,255.0,1.0,0.5,1.0,0.0,1.0
1151,3.0,0.977,0.679,0.0,1.0,2.0,0.0,1.0,256.0,1.0,0.5,1.0,1.0,1.0
1152,3.0,0.518,1.017,0.0,0.0,2.0,3.0,1.0,257.0,1.0,0.5,1.0,1.0,1.0
1153,3.0,0.438,0.766,0.0,1.0,3.0,0.0,0.0,258.0,1.0,0.5,1.0,1.0,1.0
1154,3.0,0.514,0.776,1.0,0.0,9.0,3.0,0.0,259.0,1.0,0.5,0.0,1.0,1.0
1155,3.0,0.709,0.846,0.0,1.0,1.0,0.0,1.0,260.0,1.0,0.5,0.0,0.0,1.0
1156,3.0,0.747,0.824,0.0,0.0,2.0,3.0,0.0,261.0,1.0,0.5,1.0,0.0,1.0
1157,3.0,0.465,0.783,1.0,1.0,5.0,3.0,1.0,262.0,1.0,0.5,1.0,1.0,1.0
1158,3.0,0.646,1.236,1.0,0.0,5.0,1.0,0.0,263.0,1.0,0.5,0.0,0.0,1.0
1159,3.0,0.664,0.981,0.0,1.0,1.0,2.0,0.0,264.0,1.0,0.5,1.0,0.0,1.0
1160,3.0,0.5,0.323,0.0,0.0,1.0,0.0,0.0,265.0,1.0,0.5,1.0,0.0,1.0
1161,3.0,0.684,0.548,1.0,1.0,8.0,4.0,0.0,266.0,1.0,0.5,1.0,0.0,1.0
1162,3.0,0.767,0.615,0.0,0.0,9.0,3.0,1.0,267.0,1.0,0.5,1.0,1.0,1.0
1163,3.0,0.691,0.671,0.0,1.0,6.0,1.0,1.0,268.0,1.0,0.5,1.0,0.0,1.0
1164,3.0,0.649,0.699,0.0,1.0,1.0,0.0,0.0,269.0,1.0,0.5,1.0,1.0,1.0
1165,3.0,0.66,0.772,0.0,1.0,5.0,1.0,1.0,270.0,1.0,0.5,1.0,0.0,1.0
1166,3.0,1.134,0.556,0.0,1.0,8.0,2.0,1.0,271.0,1.0,0.5,1.0,1.0,1.0
1167,3.0,0.525,1.0,0.0,1.0,6.0,4.0,0.0,272.0,1.0,0.5,1.0,0.0,1.0
1168,3.0,0.759,0.566,0.0,1.0,6.0,4.0,0.0,273.0,1.0,0.5,0.0,1.0,1.0
1169,3.0,0.721,0.849,1.0,0.0,3.0,4.0,1.0,274.0,1.0,0.5,0.0,1.0,1.0
1170,3.0,0.754,1.426,1.0,1.0,3.0,0.0,1.0,275.0,1.0,0.5,1.0,0.0,1.0
1171,3.0,0.894,0.813,1.0,0.0,6.0,4.0,1.0,276.0,1.0,0.5,0.0,0.0,1.0
1172,3.0,1.124,0.596,1.0,0.0,7.0,3.0,1.0,277.0,1.0,0.5,0.0,0.0,1.0
1173,3.0,0.884,0.504,1.0,0.0,2.0,3.0,0.0,278.0,1.0,0.5,0.0,0.0,1.0
1174,3.0,0.576,0.973,1.0,0.0,9.0,3.0,1.0,279.0,1.0,0.5,1.0,1.0,1.0
1175,3.0,0.669,1.104,0.0,0.0,1.0,0.0,0.0,280.0,1.0,0.5,1.0,1.0,1.0
1176,3.0,0.803,0.786,1.0,1.0,0.0,1.0,1.0,281.0,1.0,0.5,0.0,1.0,1.0
1177,3.0,0.734,0.993,0.0,1.0,6.0,1.0,1.0,282.0,1.0,0.5,0.0,1.0,1.0
1178,3.0,1.247,0.736,0.0,0.0,2.0,0.0,0.0,283.0,1.0,0.5,0.0,0.0,1.0
1179,3.0,0.499,0.624,1.0,0.0,0.0,0.0,0.0,284.0,1.0,0.5,1.0,1.0,1.0
1180,3.0,0.715,0.703,0.0,1.0,6.0,1.0,1.0,285.0,1.0,0.5,0.0,0.0,1.0
1181,3.0,0.529,0.798,0.0,1.0,4.0,2.0,1.0,286.0,1.0,0.5,1.0,1.0,1.0
1182,3.0,0.527,0.397,0.0,1.0,2.0,0.0,1.0,287.0,1.0,0.5,1.0,0.0,1.0
1183,3.0,0.77,0.542,1.0,0.0,9.0,4.0,1.0,288.0,1.0,0.5,0.0,1.0,1.0
1184,3.0,0.634,0.82,0.0,1.0,4.0,1.0,1.0,289.0,1.0,0.5,1.0,1.0,1.0
1185,3.0,0.497,0.449,1.0,0.0,9.0,4.0,1.0,290.0,1.0,0.5,1.0,1.0,1.0
1186,3.0,0.484,0.953,1.0,0.0,8.0,4.0,0.0,291.0,1.0,0.5,0.0,0.0,1.0
1187,3.0,0.474,0.793,1.0,0.0,7.0,3.0,1.0,292.0,1.0,0.5,1.0,1.0,1.0
1188,3.0,0.736,0.449,1.0,0.0,2.0,3.0,1.0,293.0,1.0,0.5,0.0,1.0,1.0
1189,3.0,0.421,0.512,1.0,0.0,7.0,3.0,1.0,294.0,1.0,0.5,0.0,0.0,1.0
1190,3.0,0.56,1.02,1.0,1.0,0.0,1.0,1.0,295.0,1.0,0.5,1.0,1.0,1.0
1191,3.0,0.598,0.739,1.0,1.0,7.0,2.0,1.0,296.0,1.0,0.5,0.0,0.0,1.0
1192,3.0,0.529,1.108,1.0,0.0,9.0,3.0,1.0,297.0,1.0,0.5,1.0,0.0,1.0
1193,3.0,0.49,0.737,1.0,0.0,3.0,4.0,0.0,298.0,1.0,0.5,1.0,1.0,1.0
1194,3.0,0.489,0.42,0.0,1.0,1.0,0.0,0.0,299.0,1.0,0.5,0.0,0.0,1.0
1195,4.0,0.409,1.26,1.0,1.0,4.0,2.0,1.0,0.0,1.0,0.5,1.0,0.0,1.0
1196,4.0,0.999,0.866,1.0,0.0,5.0,3.0,1.0,1.0,1.0,0.5,0.0,1.0,1.0
1197,4.0,0.512,0.586,0.0,0.0,9.0,3.0,1.0,2.0,1.0,0.5,1.0,1.0,1.0
1198,4.0,0.36,0.439,0.0,0.0,9.0,3.0,0.0,3.0,1.0,0.5,1.0,1.0,1.0
1199,4.0,0.713,0.506,0.0,1.0,8.0,2.0,0.0,4.0,1.0,0.5,1.0,0.0,1.0
1200,4.0,0.417,0.538,0.0,0.0,7.0,2.0,1.0,5.0,1.0,0.5,0.0,1.0,1.0
1201,4.0,0.45,0.413,1.0,0.0,4.0,2.0,1.0,6.0,1.0,0.5,1.0,1.0,1.0
1202,4.0,0.488,0.456,1.0,0.0,4.0,2.0,0.0,7.0,1.0,0.5,1.0,1.0,1.0
1203,4.0,0.741,0.755,0.0,0.0,5.0,1.0,1.0,8.0,1.0,0.5,0.0,1.0,1.0
1204,4.0,0.736,0.959,0.0,1.0,3.0,0.0,1.0,9.0,1.0,0.5,0.0,1.0,1.0
1205,4.0,0.8,0.44,0.0,0.0,6.0,1.0,1.0,10.0,1.0,0.5,1.0,1.0,1.0
1206,4.0,0.758,1.061,1.0,1.0,8.0,4.0,0.0,11.0,1.0,0.5,1.0,0.0,1.0
1207,4.0,0.567,0.453,1.0,1.0,7.0,2.0,1.0,12.0,1.0,0.5,1.0,0.0,1.0
1208,4.0,0.637,0.471,1.0,0.0,4.0,2.0,0.0,13.0,1.0,0.5,1.0,0.0,1.0
1209,4.0,0.436,0.665,1.0,0.0,1.0,2.0,0.0,14.0,1.0,0.5,0.0,1.0,1.0
1210,4.0,0.839,0.586,0.0,1.0,5.0,3.0,1.0,15.0,1.0,0.5,0.0,0.0,1.0
1211,4.0,0.784,0.533,0.0,1.0,4.0,1.0,0.0,16.0,1.0,0.5,0.0,0.0,1.0
1212,4.0,0.726,0.476,0.0,0.0,1.0,0.0,0.0,17.0,1.0,0.5,0.0,1.0,1.0
1213,4.0,0.739,0.743,0.0,1.0,6.0,1.0,0.0,18.0,1.0,0.5,1.0,1.0,1.0
1214,4.0,0.617,0.769,0.0,1.0,1.0,2.0,1.0,19.0,1.0,0.5,0.0,0.0,1.0
1215,4.0,0.93,0.931,0.0,1.0,5.0,1.0,0.0,20.0,1.0,0.5,0.0,1.0,1.0
1216,4.0,0.999,0.7,1.0,1.0,1.0,2.0,1.0,21.0,1.0,0.5,0.0,1.0,1.0
1217,4.0,0.784,0.731,1.0,0.0,0.0,1.0,0.0,22.0,1.0,0.5,1.0,0.0,1.0
1218,4.0,0.653,0.715,0.0,0.0,9.0,3.0,0.0,23.0,1.0,0.5,0.0,0.0,1.0
1219,4.0,0.814,0.961,1.0,1.0,0.0,1.0,0.0,24.0,1.0,0.5,1.0,0.0,1.0
1220,4.0,0.729,0.676,1.0,0.0,2.0,3.0,0.0,25.0,1.0,0.5,0.0,0.0,1.0
1221,4.0,0.98,0.75,1.0,1.0,8.0,2.0,0.0,26.0,1.0,0.5,1.0,0.0,1.0
1222,4.0,0.704,1.123,0.0,1.0,8.0,2.0,1.0,27.0,1.0,0.5,1.0,0.0,1.0
1223,4.0,0.429,0.58,0.0,1.0,8.0,2.0,1.0,28.0,1.0,0.5,0.0,1.0,1.0
1224,4.0,0.541,0.471,0.0,1.0,8.0,2.0,0.0,29.0,1.0,0.5,1.0,1.0,1.0
1225,4.0,0.712,0.694,0.0,0.0,3.0,4.0,1.0,30.0,1.0,0.5,0.0,0.0,1.0
1226,4.0,0.388,0.597,1.0,0.0,8.0,4.0,0.0,31.0,1.0,0.5,1.0,1.0,1.0
1227,4.0,0.733,0.559,1.0,1.0,5.0,3.0,0.0,32.0,1.0,0.5,1.0,1.0,1.0
1228,4.0,0.681,0.687,1.0,1.0,1.0,0.0,1.0,33.0,1.0,0.5,1.0,0.0,1.0
1229,4.0,0.827,0.802,0.0,0.0,6.0,1.0,1.0,34.0,1.0,0.5,1.0,0.0,1.0
1230,4.0,0.546,0.531,0.0,0.0,5.0,1.0,1.0,35.0,1.0,0.5,1.0,1.0,1.0
1231,4.0,0.426,0.44,0.0,1.0,6.0,1.0,1.0,36.0,1.0,0.5,0.0,1.0,1.0
1232,4.0,0.394,0.915,0.0,1.0,4.0,2.0,1.0,37.0,1.0,0.5,1.0,1.0,1.0
1233,4.0,0.482,0.59,1.0,1.0,4.0,2.0,1.0,38.0,1.0,0.5,1.0,0.0,1.0
1234,4.0,0.922,0.702,0.0,0.0,6.0,1.0,0.0,39.0,1.0,0.5,0.0,0.0,1.0
1235,4.0,0.895,0.862,1.0,1.0,9.0,4.0,0.0,40.0,1.0,0.5,0.0,0.0,1.0
1236,4.0,0.526,0.626,0.0,1.0,6.0,1.0,1.0,41.0,1.0,0.5,1.0,0.0,1.0
1237,4.0,0.8,0.783,0.0,0.0,8.0,2.0,1.0,42.0,1.0,0.5,1.0,0.0,1.0
1238,4.0,0.543,0.475,1.0,0.0,1.0,2.0,1.0,43.0,1.0,0.5,1.0,0.0,1.0
1239,4.0,0.628,0.725,1.0,0.0,0.0,0.0,0.0,44.0,1.0,0.5,1.0,1.0,1.0
1240,4.0,0.812,0.785,1.0,1.0,1.0,2.0,0.0,45.0,1.0,0.5,0.0,1.0,1.0
1241,4.0,0.67,0.552,1.0,1.0,0.0,1.0,1.0,46.0,1.0,0.5,1.0,0.0,1.0
1242,4.0,0.924,0.823,0.0,1.0,7.0,3.0,1.0,47.0,1.0,0.5,1.0,0.0,1.0
1243,4.0,1.015,0.626,1.0,1.0,3.0,0.0,0.0,48.0,1.0,0.5,1.0,0.0,1.0
1244,4.0,0.64,0.724,1.0,0.0,1.0,0.0,0.0,49.0,1.0,0.5,1.0,0.0,1.0
1245,4.0,0.698,0.431,1.0,0.0,5.0,1.0,1.0,50.0,1.0,0.5,1.0,1.0,1.0
1246,4.0,0.395,0.414,1.0,0.0,5.0,3.0,0.0,51.0,1.0,0.5,0.0,0.0,1.0
1247,4.0,0.479,0.453,0.0,1.0,9.0,3.0,1.0,52.0,1.0,0.5,1.0,0.0,1.0
1248,4.0,0.807,0.918,1.0,1.0,0.0,0.0,1.0,53.0,1.0,0.5,1.0,0.0,1.0
1249,4.0,0.543,0.485,0.0,1.0,1.0,0.0,0.0,54.0,1.0,0.5,1.0,1.0,1.0
1250,4.0,0.588,0.668,1.0,1.0,3.0,4.0,0.0,55.0,1.0,0.5,1.0,0.0,1.0
1251,4.0,0.65,0.657,0.0,1.0,9.0,3.0,1.0,56.0,1.0,0.5,0.0,0.0,1.0
1252,4.0,0.672,0.674,1.0,1.0,4.0,2.0,0.0,57.0,1.0,0.5,1.0,0.0,1.0
1253,4.0,0.522,0.419,1.0,1.0,2.0,3.0,1.0,58.0,1.0,0.5,1.0,0.0,1.0
1254,4.0,0.388,0.475,1.0,1.0,5.0,3.0,1.0,59.0,1.0,0.5,0.0,1.0,1.0
1255,4.0,0.603,0.685,1.0,0.0,6.0,4.0,0.0,60.0,1.0,0.5,1.0,0.0,1.0
1256,4.0,0.666,0.43,1.0,0.0,1.0,2.0,0.0,61.0,1.0,0.5,1.0,1.0,1.0
1257,4.0,0.598,0.631,1.0,0.0,0.0,1.0,1.0,62.0,1.0,0.5,1.0,0.0,1.0
1258,4.0,0.396,0.451,1.0,1.0,0.0,1.0,0.0,63.0,1.0,0.5,0.0,0.0,1.0
1259,4.0,0.442,0.536,0.0,1.0,4.0,1.0,1.0,64.0,1.0,0.5,1.0,1.0,1.0
1260,4.0,0.715,0.667,1.0,1.0,8.0,4.0,0.0,65.0,1.0,0.5,1.0,1.0,1.0
1261,4.0,0.555,0.79,0.0,1.0,2.0,3.0,1.0,66.0,1.0,0.5,1.0,1.0,1.0
1262,4.0,0.413,0.719,1.0,0.0,2.0,0.0,0.0,67.0,1.0,0.5,0.0,0.0,1.0
1263,4.0,0.573,0.621,0.0,0.0,8.0,2.0,0.0,68.0,1.0,0.5,1.0,0.0,1.0
1264,4.0,0.495,0.483,1.0,1.0,7.0,3.0,1.0,69.0,1.0,0.5,0.0,1.0,1.0
1265,4.0,0.446,0.543,0.0,1.0,9.0,3.0,0.0,70.0,1.0,0.5,0.0,0.0,1.0
1266,4.0,0.553,0.643,0.0,1.0,4.0,1.0,0.0,71.0,1.0,0.5,1.0,0.0,1.0
1267,4.0,0.567,0.76,0.0,1.0,9.0,4.0,0.0,72.0,1.0,0.5,0.0,0.0,1.0
1268,4.0,0.578,0.901,0.0,0.0,6.0,1.0,1.0,73.0,1.0,0.5,1.0,0.0,1.0
1269,4.0,0.387,0.622,0.0,0.0,6.0,1.0,0.0,74.0,1.0,0.5,0.0,0.0,1.0
1270,4.0,0.589,0.489,0.0,1.0,3.0,0.0,1.0,75.0,1.0,0.5,0.0,1.0,1.0
1271,4.0,0.669,0.247,1.0,1.0,4.0,2.0,0.0,76.0,1.0,0.5,1.0,1.0,1.0
1272,4.0,0.807,0.469,0.0,1.0,2.0,0.0,1.0,77.0,1.0,0.5,1.0,0.0,1.0
1273,4.0,0.725,0.517,1.0,0.0,8.0,2.0,0.0,78.0,1.0,0.5,0.0,0.0,1.0
1274,4.0,0.796,0.73,1.0,1.0,6.0,4.0,1.0,79.0,1.0,0.5,0.0,0.0,1.0
1275,4.0,0.915,0.472,0.0,0.0,4.0,1.0,0.0,80.0,1.0,0.5,1.0,0.0,1.0
1276,4.0,0.401,0.517,0.0,1.0,2.0,0.0,1.0,81.0,1.0,0.5,0.0,1.0,1.0
1277,4.0,0.373,0.544,0.0,1.0,3.0,0.0,0.0,82.0,1.0,0.5,0.0,1.0,1.0
1278,4.0,0.774,0.741,0.0,0.0,9.0,4.0,0.0,83.0,1.0,0.5,0.0,1.0,1.0
1279,4.0,0.367,0.623,1.0,1.0,3.0,4.0,0.0,84.0,1.0,0.5,0.0,0.0,1.0
1280,4.0,0.454,0.867,1.0,0.0,7.0,2.0,1.0,85.0,1.0,0.5,1.0,0.0,1.0
1281,4.0,0.403,0.627,1.0,0.0,1.0,2.0,0.0,86.0,1.0,0.5,1.0,1.0,1.0
1282,4.0,0.746,0.972,1.0,0.0,3.0,4.0,1.0,87.0,1.0,0.5,1.0,1.0,1.0
1283,4.0,0.349,0.46,1.0,0.0,6.0,4.0,1.0,88.0,1.0,0.5,0.0,1.0,1.0
1284,4.0,0.539,0.497,0.0,0.0,0.0,0.0,0.0,89.0,1.0,0.5,1.0,0.0,1.0
1285,4.0,0.707,0.573,1.0,0.0,5.0,3.0,0.0,90.0,1.0,0.5,0.0,1.0,1.0
1286,4.0,0.495,0.456,1.0,1.0,2.0,3.0,0.0,91.0,1.0,0.5,0.0,0.0,1.0
1287,4.0,0.707,0.594,0.0,1.0,6.0,4.0,0.0,92.0,1.0,0.5,1.0,1.0,1.0
1288,4.0,0.663,0.752,0.0,1.0,1.0,2.0,1.0,93.0,1.0,0.5,1.0,1.0,1.0
1289,4.0,0.73,0.606,1.0,0.0,9.0,4.0,0.0,94.0,1.0,0.5,1.0,0.0,1.0
1290,4.0,0.781,0.47,1.0,0.0,5.0,3.0,1.0,95.0,1.0,0.5,1.0,0.0,1.0
1291,4.0,0.521,0.586,1.0,1.0,6.0,4.0,0.0,96.0,1.0,0.5,1.0,0.0,1.0
1292,4.0,0.539,0.464,1.0,1.0,1.0,2.0,1.0,97.0,1.0,0.5,0.0,1.0,1.0
1293,4.0,0.414,0.787,1.0,1.0,1.0,0.0,0.0,98.0,1.0,0.5,1.0,0.0,1.0
1294,4.0,0.367,0.737,1.0,0.0,4.0,2.0,1.0,99.0,1.0,0.5,1.0,1.0,1.0
1295,4.0,0.833,0.859,0.0,0.0,0.0,1.0,1.0,100.0,1.0,0.5,0.0,1.0,1.0
1296,4.0,0.392,0.797,0.0,1.0,4.0,2.0,1.0,101.0,1.0,0.5,0.0,0.0,1.0
1297,4.0,0.645,0.76,1.0,0.0,2.0,3.0,1.0,102.0,1.0,0.5,1.0,1.0,1.0
1298,4.0,0.427,0.553,1.0,0.0,5.0,3.0,1.0,103.0,1.0,0.5,1.0,0.0,1.0
1299,4.0,0.636,1.033,0.0,0.0,8.0,2.0,1.0,104.0,1.0,0.5,0.0,1.0,1.0
1300,4.0,0.437,0.678,1.0,0.0,1.0,0.0,0.0,105.0,1.0,0.5,1.0,1.0,1.0
1301,4.0,0.465,0.723,1.0,1.0,5.0,3.0,0.0,106.0,1.0,0.5,0.0,1.0,1.0
1302,4.0,0.596,0.547,1.0,1.0,6.0,1.0,0.0,107.0,1.0,0.5,0.0,0.0,1.0
1303,4.0,0.578,0.697,1.0,0.0,3.0,0.0,1.0,108.0,1.0,0.5,1.0,0.0,1.0
1304,4.0,0.68,0.735,0.0,0.0,0.0,1.0,1.0,109.0,1.0,0.5,0.0,0.0,1.0
1305,4.0,0.418,0.566,1.0,0.0,0.0,1.0,0.0,110.0,1.0,0.5,1.0,0.0,1.0
1306,4.0,0.676,0.651,0.0,1.0,9.0,3.0,1.0,111.0,1.0,0.5,1.0,0.0,1.0
1307,4.0,0.624,0.617,0.0,0.0,8.0,4.0,1.0,112.0,1.0,0.5,1.0,0.0,1.0
1308,4.0,0.503,0.447,1.0,0.0,5.0,3.0,0.0,113.0,1.0,0.5,1.0,0.0,1.0
1309,4.0,0.814,0.665,1.0,1.0,2.0,3.0,0.0,114.0,1.0,0.5,0.0,0.0,1.0
1310,4.0,0.392,0.618,0.0,1.0,2.0,0.0,1.0,115.0,1.0,0.5,0.0,1.0,1.0
1311,4.0,0.943,0.608,0.0,1.0,8.0,4.0,0.0,116.0,1.0,0.5,1.0,1.0,1.0
1312,4.0,0.537,0.513,0.0,1.0,1.0,0.0,1.0,117.0,1.0,0.5,1.0,1.0,1.0
1313,4.0,0.802,0.879,1.0,1.0,5.0,3.0,1.0,118.0,1.0,0.5,1.0,0.0,1.0
1314,4.0,0.791,0.831,0.0,1.0,8.0,2.0,1.0,119.0,1.0,0.5,1.0,0.0,1.0
1315,4.0,0.814,0.775,0.0,1.0,3.0,4.0,0.0,120.0,1.0,0.5,0.0,0.0,1.0
1316,4.0,0.559,0.579,1.0,0.0,5.0,3.0,0.0,121.0,1.0,0.5,0.0,0.0,1.0
1317,4.0,0.508,0.798,1.0,1.0,7.0,2.0,1.0,122.0,1.0,0.5,1.0,1.0,1.0
1318,4.0,0.375,0.856,0.0,1.0,7.0,2.0,0.0,123.0,1.0,0.5,1.0,0.0,1.0
1319,4.0,0.876,0.992,0.0,1.0,3.0,4.0,0.0,124.0,1.0,0.5,0.0,1.0,1.0
1320,4.0,0.419,0.876,1.0,0.0,3.0,0.0,1.0,125.0,1.0,0.5,0.0,0.0,1.0
1321,4.0,0.642,0.266,1.0,0.0,4.0,2.0,0.0,126.0,1.0,0.5,1.0,1.0,1.0
1322,4.0,0.383,0.649,0.0,0.0,0.0,1.0,0.0,127.0,1.0,0.5,0.0,1.0,1.0
1323,4.0,0.434,0.624,0.0,0.0,0.0,0.0,0.0,128.0,1.0,0.5,0.0,0.0,1.0
1324,4.0,0.444,0.971,1.0,1.0,1.0,0.0,1.0,129.0,1.0,0.5,0.0,1.0,1.0
1325,4.0,0.715,0.758,1.0,0.0,9.0,3.0,0.0,130.0,1.0,0.5,1.0,1.0,1.0
1326,4.0,0.64,0.596,1.0,1.0,4.0,2.0,1.0,131.0,1.0,0.5,1.0,0.0,1.0
1327,4.0,0.408,0.59,1.0,1.0,1.0,2.0,1.0,132.0,1.0,0.5,0.0,1.0,1.0
1328,4.0,0.824,0.665,0.0,0.0,3.0,0.0,0.0,133.0,1.0,0.5,0.0,0.0,1.0
1329,4.0,0.527,0.853,0.0,1.0,7.0,3.0,0.0,134.0,1.0,0.5,1.0,0.0,1.0
1330,4.0,0.828,0.502,1.0,1.0,4.0,2.0,0.0,135.0,1.0,0.5,0.0,0.0,1.0
1331,4.0,0.617,0.601,1.0,0.0,6.0,4.0,0.0,136.0,1.0,0.5,0.0,1.0,1.0
1332,4.0,0.554,0.599,1.0,1.0,5.0,1.0,1.0,137.0,1.0,0.5,0.0,0.0,1.0
1333,4.0,0.711,0.997,1.0,1.0,1.0,0.0,0.0,138.0,1.0,0.5,1.0,0.0,1.0
1334,4.0,0.475,1.01,0.0,1.0,0.0,1.0,0.0,139.0,1.0,0.5,1.0,1.0,1.0
1335,4.0,0.71,0.86,0.0,1.0,7.0,2.0,0.0,140.0,1.0,0.5,1.0,0.0,1.0
1336,4.0,0.862,0.511,0.0,1.0,4.0,1.0,1.0,141.0,1.0,0.5,1.0,1.0,1.0
1337,4.0,0.718,0.597,0.0,1.0,7.0,2.0,1.0,142.0,1.0,0.5,1.0,0.0,1.0
1338,4.0,0.424,0.484,0.0,1.0,7.0,2.0,0.0,143.0,1.0,0.5,0.0,0.0,1.0
1339,4.0,0.682,0.598,1.0,1.0,7.0,3.0,0.0,144.0,1.0,0.5,1.0,0.0,1.0
1340,4.0,0.716,0.634,0.0,0.0,3.0,0.0,1.0,145.0,1.0,0.5,0.0,0.0,1.0
1341,4.0,0.471,0.595,0.0,0.0,3.0,0.0,0.0,146.0,1.0,0.5,1.0,0.0,1.0
1342,4.0,0.941,0.507,1.0,1.0,0.0,1.0,1.0,147.0,1.0,0.5,1.0,1.0,1.0
1343,4.0,0.62,0.682,1.0,1.0,9.0,4.0,0.0,148.0,1.0,0.5,0.0,0.0,1.0
1344,4.0,0.645,0.71,0.0,1.0,5.0,3.0,0.0,149.0,1.0,0.5,1.0,0.0,1.0
1345,4.0,0.422,1.102,0.0,0.0,5.0,3.0,1.0,150.0,1.0,0.5,1.0,1.0,1.0
1346,4.0,0.706,0.9,1.0,1.0,0.0,0.0,0.0,151.0,1.0,0.5,1.0,0.0,1.0
1347,4.0,0.598,0.653,0.0,1.0,9.0,3.0,0.0,152.0,1.0,0.5,0.0,0.0,1.0
1348,4.0,0.579,0.99,1.0,1.0,4.0,1.0,0.0,153.0,1.0,0.5,1.0,0.0,1.0
1349,4.0,0.703,1.03,0.0,0.0,2.0,3.0,1.0,154.0,1.0,0.5,0.0,0.0,1.0
1350,4.0,0.876,0.473,0.0,1.0,1.0,0.0,1.0,155.0,1.0,0.5,0.0,1.0,1.0
1351,4.0,0.874,1.07,0.0,0.0,6.0,1.0,1.0,156.0,1.0,0.5,1.0,1.0,1.0
1352,4.0,0.677,0.741,0.0,1.0,1.0,0.0,0.0,157.0,1.0,0.5,0.0,0.0,1.0
1353,4.0,0.404,0.452,1.0,0.0,7.0,3.0,0.0,158.0,1.0,0.5,0.0,1.0,1.0
1354,4.0,0.498,0.484,0.0,1.0,9.0,3.0,0.0,159.0,1.0,0.5,1.0,0.0,1.0
1355,4.0,0.714,0.728,0.0,1.0,8.0,4.0,1.0,160.0,1.0,0.5,1.0,0.0,1.0
1356,4.0,0.405,0.863,1.0,0.0,6.0,1.0,0.0,161.0,1.0,0.5,0.0,1.0,1.0
1357,4.0,0.561,0.478,1.0,1.0,9.0,4.0,1.0,162.0,1.0,0.5,0.0,0.0,1.0
1358,4.0,0.894,0.799,0.0,0.0,7.0,3.0,0.0,163.0,1.0,0.5,1.0,1.0,1.0
1359,4.0,0.513,0.604,1.0,1.0,4.0,2.0,0.0,164.0,1.0,0.5,1.0,1.0,1.0
1360,4.0,0.614,0.472,0.0,0.0,9.0,3.0,0.0,165.0,1.0,0.5,1.0,0.0,1.0
1361,4.0,0.715,0.9,0.0,0.0,6.0,1.0,0.0,166.0,1.0,0.5,1.0,1.0,1.0
1362,4.0,0.701,0.539,1.0,1.0,2.0,3.0,0.0,167.0,1.0,0.5,0.0,1.0,1.0
1363,4.0,0.576,0.663,0.0,0.0,0.0,1.0,1.0,168.0,1.0,0.5,0.0,0.0,1.0
1364,4.0,1.104,0.858,0.0,0.0,4.0,1.0,1.0,169.0,1.0,0.5,1.0,0.0,1.0
1365,4.0,0.562,0.512,0.0,1.0,2.0,0.0,1.0,170.0,1.0,0.5,1.0,1.0,1.0
1366,4.0,0.606,0.476,1.0,1.0,8.0,4.0,1.0,171.0,1.0,0.5,0.0,0.0,1.0
1367,4.0,0.515,0.502,0.0,1.0,7.0,2.0,1.0,172.0,1.0,0.5,1.0,1.0,1.0
1368,4.0,0.624,0.541,0.0,0.0,5.0,3.0,0.0,173.0,1.0,0.5,1.0,0.0,1.0
1369,4.0,0.691,0.646,0.0,1.0,9.0,3.0,1.0,174.0,1.0,0.5,1.0,1.0,1.0
1370,4.0,0.456,0.704,0.0,1.0,9.0,4.0,0.0,175.0,1.0,0.5,0.0,1.0,1.0
1371,4.0,0.59,0.591,0.0,1.0,0.0,0.0,0.0,176.0,1.0,0.5,0.0,0.0,1.0
1372,4.0,0.44,0.592,1.0,1.0,5.0,3.0,1.0,177.0,1.0,0.5,0.0,0.0,1.0
1373,4.0,0.424,0.433,0.0,1.0,9.0,3.0,1.0,178.0,1.0,0.5,0.0,0.0,1.0
1374,4.0,0.4,0.839,0.0,0.0,9.0,4.0,1.0,179.0,1.0,0.5,0.0,0.0,1.0
1375,4.0,0.762,0.434,1.0,0.0,1.0,2.0,1.0,180.0,1.0,0.5,0.0,1.0,1.0
1376,4.0,0.371,0.5,1.0,0.0,4.0,2.0,1.0,181.0,1.0,0.5,1.0,1.0,1.0
1377,4.0,0.645,0.657,1.0,0.0,9.0,4.0,0.0,182.0,1.0,0.5,1.0,1.0,1.0
1378,4.0,0.504,0.703,0.0,0.0,3.0,0.0,0.0,183.0,1.0,0.5,0.0,1.0,1.0
1379,4.0,0.61,0.752,0.0,0.0,6.0,1.0,0.0,184.0,1.0,0.5,1.0,0.0,1.0
1380,4.0,0.757,0.9,0.0,0.0,0.0,0.0,0.0,185.0,1.0,0.5,1.0,0.0,1.0
1381,4.0,0.691,0.461,0.0,1.0,6.0,4.0,0.0,186.0,1.0,0.5,0.0,1.0,1.0
1382,4.0,0.56,0.518,1.0,0.0,3.0,4.0,0.0,187.0,1.0,0.5,0.0,0.0,1.0
1383,4.0,0.542,0.679,0.0,0.0,2.0,0.0,0.0,188.0,1.0,0.5,1.0,1.0,1.0
1384,4.0,0.788,0.981,0.0,1.0,9.0,3.0,0.0,189.0,1.0,0.5,0.0,0.0,1.0
1385,4.0,0.42,0.49,1.0,0.0,2.0,3.0,1.0,190.0,1.0,0.5,0.0,1.0,1.0
1386,4.0,0.677,0.739,0.0,1.0,0.0,0.0,1.0,191.0,1.0,0.5,0.0,0.0,1.0
1387,4.0,0.612,0.607,0.0,1.0,3.0,0.0,0.0,192.0,1.0,0.5,1.0,0.0,1.0
1388,4.0,0.626,0.991,0.0,1.0,7.0,3.0,0.0,193.0,1.0,0.5,0.0,1.0,1.0
1389,4.0,0.779,0.542,0.0,1.0,3.0,0.0,1.0,194.0,1.0,0.5,1.0,0.0,1.0
1390,4.0,0.743,0.748,0.0,1.0,6.0,1.0,0.0,195.0,1.0,0.5,0.0,1.0,1.0
1391,4.0,0.403,0.635,0.0,0.0,2.0,3.0,1.0,196.0,1.0,0.5,1.0,1.0,1.0
1392,4.0,0.532,0.555,0.0,1.0,0.0,0.0,0.0,197.0,1.0,0.5,1.0,1.0,1.0
1393,4.0,0.452,0.469,0.0,0.0,4.0,2.0,1.0,198.0,1.0,0.5,1.0,1.0,1.0
1394,4.0,0.523,0.715,1.0,1.0,8.0,4.0,1.0,199.0,1.0,0.5,1.0,1.0,1.0
1395,4.0,0.599,0.552,1.0,1.0,5.0,3.0,0.0,200.0,1.0,0.5,0.0,0.0,1.0
1396,4.0,0.69,1.121,0.0,1.0,8.0,4.0,1.0,201.0,1.0,0.5,1.0,0.0,1.0
1397,4.0,0.633,0.411,1.0,0.0,5.0,3.0,0.0,202.0,1.0,0.5,1.0,1.0,1.0
1398,4.0,0.536,0.511,0.0,1.0,3.0,0.0,0.0,203.0,1.0,0.5,1.0,0.0,1.0
1399,4.0,0.672,0.585,1.0,1.0,2.0,3.0,0.0,204.0,1.0,0.5,1.0,1.0,1.0
1400,4.0,0.647,0.69,1.0,1.0,5.0,3.0,1.0,205.0,1.0,0.5,0.0,1.0,1.0
1401,4.0,0.597,0.675,1.0,1.0,8.0,4.0,0.0,206.0,1.0,0.5,0.0,0.0,1.0
1402,4.0,0.605,0.508,0.0,1.0,1.0,0.0,0.0,207.0,1.0,0.5,1.0,0.0,1.0
1403,4.0,0.659,0.712,1.0,1.0,9.0,4.0,0.0,208.0,1.0,0.5,1.0,1.0,1.0
1404,4.0,0.894,0.68,1.0,1.0,3.0,0.0,1.0,209.0,1.0,0.5,0.0,1.0,1.0
1405,4.0,0.577,0.439,1.0,1.0,9.0,4.0,0.0,210.0,1.0,0.5,0.0,1.0,1.0
1406,4.0,0.587,0.519,1.0,1.0,8.0,4.0,0.0,211.0,1.0,0.5,1.0,0.0,1.0
1407,4.0,0.593,0.492,0.0,1.0,0.0,0.0,1.0,212.0,1.0,0.5,1.0,1.0,1.0
1408,4.0,0.619,0.501,0.0,1.0,3.0,0.0,0.0,213.0,1.0,0.5,1.0,0.0,1.0
1409,4.0,0.745,0.493,0.0,1.0,9.0,3.0,1.0,214.0,1.0,0.5,0.0,0.0,1.0
1410,4.0,0.714,0.988,0.0,0.0,3.0,4.0,0.0,215.0,1.0,0.5,1.0,0.0,1.0
1411,4.0,0.719,1.2,0.0,1.0,6.0,4.0,1.0,216.0,1.0,0.5,1.0,0.0,1.0
1412,4.0,0.674,0.681,1.0,1.0,0.0,1.0,1.0,217.0,1.0,0.5,1.0,0.0,1.0
1413,4.0,0.632,0.673,1.0,0.0,9.0,4.0,1.0,218.0,1.0,0.5,0.0,1.0,1.0
1414,4.0,0.467,0.54,1.0,0.0,3.0,4.0,0.0,219.0,1.0,0.5,0.0,1.0,1.0
1415,4.0,0.599,0.614,0.0,0.0,2.0,0.0,0.0,220.0,1.0,0.5,0.0,1.0,1.0
1416,4.0,0.594,0.509,0.0,1.0,7.0,2.0,0.0,221.0,1.0,0.5,1.0,1.0,1.0
1417,4.0,0.44,0.542,0.0,0.0,7.0,2.0,1.0,222.0,1.0,0.5,0.0,1.0,1.0
1418,4.0,0.452,0.653,1.0,0.0,1.0,2.0,0.0,223.0,1.0,0.5,0.0,1.0,1.0
1419,4.0,0.616,1.041,1.0,0.0,8.0,2.0,1.0,224.0,1.0,0.5,0.0,0.0,1.0
1420,4.0,0.772,0.696,1.0,1.0,2.0,3.0,0.0,225.0,1.0,0.5,0.0,1.0,1.0
1421,4.0,0.683,0.595,1.0,0.0,7.0,3.0,0.0,226.0,1.0,0.5,0.0,0.0,1.0
1422,4.0,0.517,0.536,0.0,0.0,0.0,0.0,1.0,227.0,1.0,0.5,1.0,1.0,1.0
1423,4.0,0.775,0.699,1.0,1.0,7.0,3.0,0.0,228.0,1.0,0.5,1.0,1.0,1.0
1424,4.0,0.437,0.514,0.0,0.0,3.0,0.0,0.0,229.0,1.0,0.5,0.0,1.0,1.0
1425,4.0,0.642,0.674,0.0,0.0,7.0,2.0,1.0,230.0,1.0,0.5,0.0,1.0,1.0
1426,4.0,0.396,0.574,0.0,0.0,7.0,2.0,1.0,231.0,1.0,0.5,0.0,0.0,1.0
1427,4.0,0.386,0.794,1.0,0.0,4.0,1.0,0.0,232.0,1.0,0.5,1.0,0.0,1.0
1428,4.0,0.791,0.923,1.0,0.0,2.0,0.0,0.0,233.0,1.0,0.5,1.0,1.0,1.0
1429,4.0,0.603,0.512,0.0,0.0,8.0,2.0,0.0,234.0,1.0,0.5,0.0,0.0,1.0
1430,4.0,0.584,0.522,1.0,1.0,5.0,3.0,1.0,235.0,1.0,0.5,0.0,0.0,1.0
1431,4.0,0.64,0.697,1.0,1.0,0.0,1.0,1.0,236.0,1.0,0.5,1.0,0.0,1.0
1432,4.0,0.585,0.947,0.0,0.0,1.0,2.0,1.0,237.0,1.0,0.5,1.0,0.0,1.0
1433,4.0,0.783,0.742,1.0,0.0,0.0,1.0,0.0,238.0,1.0,0.5,1.0,0.0,1.0
1434,4.0,0.62,0.958,1.0,1.0,2.0,0.0,0.0,239.0,1.0,0.5,1.0,0.0,1.0
1435,4.0,0.505,0.87,1.0,0.0,4.0,2.0,1.0,240.0,1.0,0.5,1.0,0.0,1.0
1436,4.0,0.712,0.668,1.0,0.0,5.0,3.0,0.0,241.0,1.0,0.5,0.0,0.0,1.0
1437,4.0,0.621,0.661,1.0,0.0,0.0,0.0,0.0,242.0,1.0,0.5,1.0,0.0,1.0
1438,4.0,0.48,0.59,1.0,0.0,7.0,2.0,1.0,243.0,1.0,0.5,1.0,1.0,1.0
1439,4.0,0.689,0.96,1.0,1.0,2.0,3.0,1.0,244.0,1.0,0.5,0.0,1.0,1.0
1440,4.0,1.666,0.895,1.0,1.0,4.0,1.0,1.0,245.0,1.0,0.5,1.0,1.0,1.0
1441,4.0,0.588,0.468,1.0,0.0,7.0,3.0,0.0,246.0,1.0,0.5,0.0,0.0,1.0
1442,4.0,0.533,0.472,1.0,1.0,4.0,2.0,1.0,247.0,1.0,0.5,1.0,1.0,1.0
1443,4.0,0.596,0.56,1.0,1.0,5.0,1.0,1.0,248.0,1.0,0.5,0.0,0.0,1.0
1444,4.0,0.538,0.437,1.0,1.0,2.0,3.0,0.0,249.0,1.0,0.5,1.0,1.0,1.0
1445,4.0,0.404,0.919,1.0,0.0,7.0,3.0,0.0,250.0,1.0,0.5,0.0,1.0,1.0
1446,4.0,0.455,0.691,1.0,1.0,5.0,3.0,1.0,251.0,1.0,0.5,1.0,0.0,1.0
1447,4.0,0.424,0.558,1.0,1.0,7.0,3.0,1.0,252.0,1.0,0.5,0.0,1.0,1.0
1448,4.0,0.711,1.144,0.0,1.0,0.0,1.0,0.0,253.0,1.0,0.5,0.0,1.0,1.0
1449,4.0,0.583,0.802,0.0,1.0,6.0,4.0,0.0,254.0,1.0,0.5,0.0,0.0,1.0
1450,4.0,0.451,0.526,1.0,1.0,2.0,3.0,0.0,255.0,1.0,0.5,0.0,1.0,1.0
1451,4.0,0.609,0.57,1.0,1.0,4.0,2.0,0.0,256.0,1.0,0.5,1.0,0.0,1.0
1452,4.0,0.665,0.912,1.0,0.0,5.0,1.0,0.0,257.0,1.0,0.5,0.0,0.0,1.0
1453,4.0,0.524,0.771,1.0,0.0,2.0,3.0,0.0,258.0,1.0,0.5,0.0,0.0,1.0
1454,4.0,0.539,0.737,0.0,1.0,7.0,2.0,1.0,259.0,1.0,0.5,1.0,0.0,1.0
1455,4.0,0.444,0.543,0.0,0.0,8.0,2.0,1.0,260.0,1.0,0.5,1.0,0.0,1.0
1456,4.0,0.685,0.711,1.0,0.0,6.0,4.0,1.0,261.0,1.0,0.5,1.0,0.0,1.0
1457,4.0,0.487,0.485,1.0,1.0,5.0,3.0,1.0,262.0,1.0,0.5,1.0,1.0,1.0
1458,4.0,0.531,0.559,0.0,0.0,8.0,4.0,1.0,263.0,1.0,0.5,1.0,1.0,1.0
1459,4.0,0.6,0.616,1.0,1.0,2.0,0.0,1.0,264.0,1.0,0.5,1.0,0.0,1.0
1460,4.0,0.611,0.786,0.0,0.0,8.0,2.0,1.0,265.0,1.0,0.5,1.0,0.0,1.0
1461,4.0,0.6,0.747,0.0,0.0,2.0,3.0,0.0,266.0,1.0,0.5,1.0,0.0,1.0
1462,4.0,0.535,0.662,0.0,0.0,7.0,3.0,0.0,267.0,1.0,0.5,1.0,0.0,1.0
1463,4.0,0.603,0.751,0.0,0.0,3.0,4.0,1.0,268.0,1.0,0.5,1.0,1.0,1.0
1464,4.0,0.692,0.93,0.0,1.0,0.0,1.0,0.0,269.0,1.0,0.5,1.0,0.0,1.0
1465,4.0,0.651,0.931,0.0,1.0,1.0,2.0,1.0,270.0,1.0,0.5,1.0,1.0,1.0
1466,4.0,0.518,0.774,1.0,1.0,4.0,1.0,0.0,271.0,1.0,0.5,0.0,0.0,1.0
1467,4.0,0.724,0.851,0.0,0.0,6.0,1.0,0.0,272.0,1.0,0.5,0.0,0.0,1.0
1468,4.0,0.654,0.581,0.0,0.0,1.0,0.0,0.0,273.0,1.0,0.5,1.0,1.0,1.0
1469,4.0,0.514,0.912,0.0,1.0,3.0,0.0,0.0,274.0,1.0,0.5,0.0,0.0,1.0
1470,4.0,0.865,1.081,0.0,0.0,8.0,4.0,0.0,275.0,1.0,0.5,0.0,1.0,1.0
1471,4.0,0.528,0.8,1.0,1.0,6.0,4.0,1.0,276.0,1.0,0.5,0.0,1.0,1.0
1472,4.0,0.715,0.717,0.0,0.0,2.0,0.0,0.0,277.0,1.0,0.5,0.0,1.0,1.0
1473,4.0,0.475,0.716,1.0,0.0,9.0,4.0,1.0,278.0,1.0,0.5,0.0,1.0,1.0
1474,4.0,0.423,0.873,1.0,1.0,3.0,0.0,0.0,279.0,1.0,0.5,1.0,0.0,1.0
1475,4.0,0.415,0.515,1.0,0.0,9.0,4.0,0.0,280.0,1.0,0.5,0.0,1.0,1.0
1476,4.0,0.554,0.583,1.0,1.0,7.0,3.0,1.0,281.0,1.0,0.5,1.0,0.0,1.0
1477,4.0,0.423,0.432,1.0,1.0,7.0,3.0,1.0,282.0,1.0,0.5,1.0,1.0,1.0
1478,4.0,1.152,0.599,1.0,0.0,8.0,4.0,0.0,283.0,1.0,0.5,1.0,0.0,1.0
1479,4.0,0.798,0.644,0.0,0.0,6.0,1.0,1.0,284.0,1.0,0.5,1.0,0.0,1.0
1480,4.0,0.475,0.77,1.0,1.0,0.0,0.0,0.0,285.0,1.0,0.5,0.0,1.0,1.0
1481,4.0,0.793,0.768,0.0,1.0,9.0,3.0,1.0,286.0,1.0,0.5,1.0,0.0,1.0
1482,4.0,0.688,0.839,0.0,1.0,1.0,0.0,1.0,287.0,1.0,0.5,0.0,1.0,1.0
1483,4.0,0.42,0.792,0.0,1.0,2.0,0.0,0.0,288.0,1.0,0.5,0.0,1.0,1.0
1484,4.0,0.635,0.57,1.0,0.0,8.0,4.0,1.0,289.0,1.0,0.5,0.0,1.0,1.0
1485,4.0,0.391,0.565,1.0,0.0,8.0,4.0,1.0,290.0,1.0,0.5,1.0,1.0,1.0
1486,4.0,0.684,0.453,0.0,0.0,4.0,1.0,0.0,291.0,1.0,0.5,0.0,0.0,1.0
1487,4.0,0.473,0.775,1.0,1.0,3.0,0.0,1.0,292.0,1.0,0.5,1.0,1.0,1.0
1488,4.0,0.586,0.474,1.0,0.0,6.0,4.0,0.0,293.0,1.0,0.5,1.0,1.0,1.0
1489,4.0,0.599,0.739,0.0,1.0,1.0,2.0,0.0,294.0,1.0,0.5,0.0,0.0,1.0
1490,4.0,0.442,0.575,1.0,0.0,6.0,4.0,1.0,295.0,1.0,0.5,1.0,0.0,1.0
1491,4.0,0.417,0.634,1.0,0.0,3.0,0.0,0.0,296.0,1.0,0.5,0.0,1.0,1.0
1492,4.0,0.646,0.732,1.0,1.0,2.0,0.0,0.0,297.0,1.0,0.5,1.0,1.0,1.0
1493,5.0,1.413,1.262,1.0,0.0,4.0,2.0,0.0,0.0,1.0,0.5,1.0,0.0,1.0
1494,5.0,0.49,1.498,1.0,0.0,4.0,2.0,0.0,1.0,1.0,0.5,1.0,1.0,1.0
1495,5.0,1.182,1.164,1.0,1.0,3.0,4.0,1.0,2.0,1.0,0.5,0.0,1.0,1.0
1496,5.0,0.922,1.097,1.0,0.0,0.0,1.0,1.0,3.0,1.0,0.5,1.0,1.0,1.0
1497,5.0,0.865,1.15,1.0,0.0,3.0,4.0,0.0,4.0,1.0,0.5,1.0,1.0,1.0
1498,5.0,1.064,1.358,1.0,0.0,7.0,3.0,1.0,5.0,1.0,0.5,0.0,0.0,1.0
1499,5.0,0.708,0.91,0.0,1.0,4.0,2.0,1.0,6.0,1.0,0.5,1.0,0.0,1.0
1500,5.0,0.785,1.541,0.0,1.0,3.0,0.0,1.0,7.0,1.0,0.5,0.0,0.0,1.0
1501,5.0,0.855,0.865,1.0,1.0,3.0,0.0,1.0,8.0,1.0,0.5,0.0,0.0,1.0
1502,5.0,0.678,0.71,1.0,1.0,1.0,2.0,1.0,9.0,1.0,0.5,1.0,0.0,1.0
1503,5.0,0.706,0.576,1.0,0.0,6.0,1.0,0.0,10.0,1.0,0.5,0.0,1.0,1.0
1504,5.0,0.966,0.881,0.0,1.0,4.0,2.0,0.0,11.0,1.0,0.5,1.0,0.0,1.0
1505,5.0,0.618,0.691,0.0,1.0,2.0,0.0,1.0,12.0,1.0,0.5,1.0,1.0,1.0
1506,5.0,0.673,1.103,1.0,1.0,6.0,4.0,1.0,13.0,1.0,0.5,1.0,0.0,1.0
1507,5.0,0.827,1.084,0.0,1.0,8.0,4.0,0.0,14.0,1.0,0.5,0.0,0.0,1.0
1508,5.0,0.919,0.505,1.0,1.0,3.0,4.0,1.0,15.0,1.0,0.5,0.0,0.0,1.0
1509,5.0,0.809,0.79,0.0,1.0,3.0,0.0,1.0,16.0,1.0,0.5,0.0,1.0,1.0
1510,5.0,1.525,0.629,0.0,0.0,9.0,3.0,1.0,17.0,1.0,0.5,1.0,0.0,1.0
1511,5.0,0.671,0.646,0.0,1.0,6.0,4.0,0.0,18.0,1.0,0.5,0.0,0.0,1.0
1512,5.0,0.797,0.706,0.0,1.0,6.0,4.0,1.0,19.0,1.0,0.5,0.0,0.0,1.0
1513,5.0,0.769,1.075,0.0,1.0,9.0,3.0,1.0,20.0,1.0,0.5,0.0,0.0,1.0
1514,5.0,0.895,0.47,0.0,1.0,0.0,0.0,1.0,21.0,1.0,0.5,1.0,1.0,1.0
1515,5.0,0.712,0.509,1.0,1.0,8.0,4.0,1.0,22.0,1.0,0.5,0.0,0.0,1.0
1516,5.0,0.627,0.601,0.0,1.0,2.0,3.0,1.0,23.0,1.0,0.5,0.0,0.0,1.0
1517,5.0,1.034,1.651,0.0,0.0,7.0,3.0,1.0,24.0,1.0,0.5,1.0,0.0,1.0
1518,5.0,0.817,0.818,0.0,1.0,8.0,4.0,0.0,25.0,1.0,0.5,0.0,0.0,1.0
1519,5.0,0.864,0.502,0.0,1.0,3.0,0.0,1.0,26.0,1.0,0.5,0.0,1.0,1.0
1520,5.0,0.691,1.014,0.0,1.0,7.0,2.0,1.0,27.0,1.0,0.5,1.0,0.0,1.0
1521,5.0,0.685,1.256,1.0,1.0,7.0,2.0,0.0,28.0,1.0,0.5,0.0,0.0,1.0
